"Time (s)","Acceleration x (m/s^2)","Acceleration y (m/s^2)","Acceleration z (m/s^2)"
8.530926000E-3,-2.956950188E0,4.558950424E0,6.376950264E0
1.097961900E-2,-3.021000147E0,4.504050255E0,6.559050083E0
1.343389600E-2,-3.133950233E0,4.462950230E0,6.798000336E0
1.587776500E-2,-3.246000051E0,4.438950062E0,7.027950287E0
1.832628800E-2,-3.345000267E0,4.420050144E0,7.270050526E0
2.077467300E-2,-3.409050226E0,4.422000408E0,7.536000252E0
2.330975000E-2,-3.460050106E0,4.372050285E0,7.765950203E0
2.575275200E-2,-3.546000242E0,4.326000214E0,7.983000278E0
2.819581600E-2,-3.625050068E0,4.297950268E0,8.164950371E0
3.063866200E-2,-3.688950062E0,4.281000137E0,8.314050674E0
3.308166200E-2,-3.756000280E0,4.281000137E0,8.470050812E0
3.552473900E-2,-3.850050211E0,4.276050091E0,8.629950523E0
3.796781600E-2,-3.958050251E0,4.321950436E0,8.749950409E0
4.041063500E-2,-4.051050186E0,4.353000164E0,8.905050278E0
4.285394000E-2,-4.101000309E0,4.333950043E0,9.043950081E0
4.529701900E-2,-4.113000393E0,4.361999989E0,9.087000847E0
4.774017100E-2,-4.185000420E0,4.357950211E0,9.082050323E0
5.018355600E-2,-4.258950233E0,4.348050117E0,9.067950249E0
5.262691300E-2,-4.276050091E0,4.328999996E0,8.946000099E0
5.507052900E-2,-4.266000271E0,4.300050259E0,8.800050735E0
5.751391500E-2,-4.213950157E0,4.281000137E0,8.686950684E0
5.995760600E-2,-4.141950130E0,4.252050400E0,8.584050179E0
6.240106900E-2,-3.991050243E0,4.225950241E0,8.479050636E0
6.484466100E-2,-3.799950123E0,4.201950073E0,8.319000244E0
6.728812400E-2,-3.658050060E0,4.141950130E0,8.155950546E0
6.973173800E-2,-3.546000242E0,4.147050381E0,7.960050583E0
7.217520100E-2,-3.438000202E0,4.123050213E0,7.822950363E0
7.461881500E-2,-3.349050045E0,4.152000427E0,7.734000206E0
7.706224200E-2,-3.285000086E0,4.149000168E0,7.696050167E0
7.950585600E-2,-3.261000156E0,4.099050045E0,7.725000381E0
8.194954800E-2,-3.193950176E0,4.081950188E0,7.765950203E0
8.439293400E-2,-3.154950142E0,4.051050186E0,7.828050137E0
8.683662500E-2,-3.154950142E0,4.048950195E0,7.861050606E0
8.928008600E-2,-3.157950163E0,4.039050102E0,7.828050137E0
9.172370000E-2,-3.148050070E0,4.029000282E0,7.780050278E0
9.416716300E-2,-3.177000046E0,4.045950413E0,7.744050503E0
9.661077700E-2,-3.202950239E0,4.048950195E0,7.702950478E0
9.905420400E-2,-3.208050251E0,4.075050354E0,7.684050560E0
1.014978180E-1,-3.202950239E0,4.065000057E0,7.654950142E0
1.039412810E-1,-3.187050104E0,4.024950027E0,7.641000271E0
1.063848950E-1,-3.223050117E0,3.982050180E0,7.612050533E0
1.088283580E-1,-3.253950119E0,3.955050230E0,7.557000160E0
1.112720560E-1,-3.282000065E0,3.934050083E0,7.509000301E0
1.137156740E-1,-3.342000246E0,3.939000130E0,7.509000301E0
1.161591350E-1,-3.460050106E0,3.916950226E0,7.536000252E0
1.186027490E-1,-3.547950268E0,3.952950239E0,7.584000587E0
1.210462120E-1,-3.627000093E0,3.960000277E0,7.648050308E0
1.234898050E-1,-3.699000120E0,3.939000130E0,7.705950260E0
1.259332680E-1,-3.754050255E0,3.916950226E0,7.813050270E0
1.283768820E-1,-3.771000147E0,3.871050119E0,7.918950558E0
1.308203450E-1,-3.778050184E0,3.852000237E0,8.035950661E0
1.332640350E-1,-3.742050171E0,3.799950123E0,8.161050797E0
1.357075990E-1,-3.703950167E0,3.723000288E0,8.296950340E0
1.381510600E-1,-3.682050228E0,3.727950096E0,8.425950050E0
1.405946740E-1,-3.598050117E0,3.711000204E0,8.529000282E0
1.430381370E-1,-3.559950113E0,3.697050095E0,8.620050430E0
1.454817510E-1,-3.486000061E0,3.694050074E0,8.742000580E0
1.479251800E-1,-3.430950165E0,3.666000128E0,8.889000893E0
1.503687940E-1,-3.369000196E0,3.654000282E0,9.039000511E0
1.528122570E-1,-3.369000196E0,3.673050165E0,9.098999977E0
1.552558710E-1,-3.325050116E0,3.663000107E0,9.139950752E0
1.576995630E-1,-3.306000233E0,3.639000177E0,9.121050835E0
1.601430150E-1,-3.261000156E0,3.634050131E0,9.097050667E0
1.625866290E-1,-3.226950169E0,3.675000191E0,9.043950081E0
1.650300920E-1,-3.175050259E0,3.685050249E0,8.971950531E0
1.674737060E-1,-3.112050056E0,3.700950146E0,8.865000725E0
1.699171690E-1,-3.064950228E0,3.745050192E0,8.785950661E0
1.723607460E-1,-2.988000154E0,3.736950159E0,8.698950768E0
1.748042090E-1,-2.887050152E0,3.685050249E0,8.620050430E0
1.772478230E-1,-2.820000172E0,3.622050285E0,8.544000626E0
1.796912860E-1,-2.727000237E0,3.562950134E0,8.440950394E0
1.821349000E-1,-2.665050030E0,3.493050098E0,8.355000496E0
1.845783290E-1,-2.631000042E0,3.481050253E0,8.307000160E0
1.870219420E-1,-2.689050198E0,3.487950087E0,8.236949921E0
1.894654060E-1,-2.740950108E0,3.595950127E0,8.206049919E0
1.919090960E-1,-2.844000101E0,3.727950096E0,8.122050285E0
1.943527140E-1,-2.976000071E0,3.832950115E0,8.002950668E0
1.967961410E-1,-3.177000046E0,3.984000206E0,7.866000175E0
1.992397550E-1,-3.277950048E0,4.113000393E0,7.714950562E0
2.016832180E-1,-3.381000042E0,4.213950157E0,7.572000504E0
2.041268320E-1,-3.478950262E0,4.258950233E0,7.396950245E0
2.065702950E-1,-3.517050266E0,4.269000053E0,7.252950191E0
2.090138900E-1,-3.643950224E0,4.300050259E0,7.138050556E0
2.114573530E-1,-3.744000196E0,4.345950127E0,7.090050220E0
2.139009660E-1,-3.790050268E0,4.408050060E0,7.098000526E0
2.163446590E-1,-3.819000244E0,4.414950371E0,7.095000267E0
2.187881220E-1,-3.874050140E0,4.396049976E0,7.123950481E0
2.212317200E-1,-3.937950134E0,4.357950211E0,7.171950340E0
2.236751830E-1,-3.979050159E0,4.357950211E0,7.224000454E0
2.261187970E-1,-4.036950111E0,4.342950344E0,7.270050526E0
2.285622600E-1,-4.084050179E0,4.333950043E0,7.287000179E0
2.310058740E-1,-4.137000084E0,4.336050034E0,7.330050468E0
2.334493230E-1,-4.132050037E0,4.348050117E0,7.372950554E0
2.358929370E-1,-4.060950279E0,4.288050175E0,7.459050179E0
2.383364000E-1,-4.063050270E0,4.285950184E0,7.536000252E0
2.407800130E-1,-4.101000309E0,4.276050091E0,7.641000271E0
2.432234720E-1,-4.009950161E0,4.228050232E0,7.813050270E0
2.456670850E-1,-3.949950218E0,4.096950054E0,8.017050743E0
2.481105490E-1,-3.883050203E0,4.029000282E0,8.194050789E0
2.505541620E-1,-3.850050211E0,3.967050076E0,8.260950089E0
2.529976260E-1,-3.807000160E0,3.922050238E0,8.290050507E0
2.554413160E-1,-3.712950230E0,3.838050127E0,8.296950340E0
2.578849340E-1,-3.661050081E0,3.754050255E0,8.331000328E0
2.603283950E-1,-3.558000088E0,3.724950075E0,8.302050591E0
2.627720080E-1,-3.472050190E0,3.690000057E0,8.242050171E0
2.652154720E-1,-3.426000118E0,3.687000275E0,8.221050262E0
2.676590710E-1,-3.430950165E0,3.771000147E0,8.242050171E0
2.701025350E-1,-3.409050226E0,3.855000257E0,8.340000153E0
2.725461480E-1,-3.376050234E0,3.934050083E0,8.434050560E0
2.749896120E-1,-3.306000233E0,3.939000130E0,8.461950302E0
2.774332250E-1,-3.229950190E0,3.939000130E0,8.446050644E0
2.798769320E-1,-3.108000040E0,3.876000166E0,8.419050217E0
2.823203950E-1,-2.940000057E0,3.751950264E0,8.379000664E0
2.847640090E-1,-2.760000229E0,3.655950069E0,8.376000404E0
2.872074720E-1,-2.602050066E0,3.535950184E0,8.395050049E0
2.896510850E-1,-2.461050034E0,3.445050240E0,8.455050468E0
2.920945630E-1,-2.358000040E0,3.376050234E0,8.604000092E0
2.945381760E-1,-2.272050142E0,3.282000065E0,8.776050568E0
2.969816400E-1,-2.149950027E0,3.225000143E0,9.001049995E0
2.994252530E-1,-2.092050076E0,3.163050175E0,9.219000816E0
3.018687170E-1,-2.032950163E0,3.139050245E0,9.424950600E0
3.043123110E-1,-1.960950136E0,3.057000160E0,9.577950478E0
3.067560040E-1,-1.969950080E0,2.992950201E0,9.729000092E0
3.091994670E-1,-2.029950142E0,2.964000225E0,9.841050148E0
3.116430810E-1,-2.113950014E0,3.013950109E0,9.946950912E0
3.140865440E-1,-2.233950138E0,3.097950220E0,1.001400089E1
3.165301720E-1,-2.394000053E0,3.211050034E0,1.003995037E1
3.189736360E-1,-2.538000107E0,3.330000162E0,1.002795029E1
3.214172490E-1,-2.704950094E0,3.493050098E0,9.978000641E0
3.238607130E-1,-2.854050159E0,3.598950148E0,9.870000839E0
3.263043260E-1,-2.959050179E0,3.675000191E0,9.697950363E0
3.287477900E-1,-3.016950130E0,3.775950193E0,9.460950851E0
3.311914800E-1,-3.049950123E0,3.796950102E0,9.214050293E0
3.336350980E-1,-3.073950052E0,3.838050127E0,8.991000175E0
3.360785590E-1,-3.031050205E0,3.820950270E0,8.758950233E0
3.385221730E-1,-3.000000238E0,3.844950199E0,8.520000458E0
3.409656450E-1,-2.940000057E0,3.879000187E0,8.386050224E0
3.434092580E-1,-2.908950090E0,3.900000095E0,8.282999992E0
3.458527220E-1,-2.859000206E0,3.915000200E0,8.223000526E0
3.482963350E-1,-2.866050243E0,3.912000179E0,8.230050087E0
3.507397990E-1,-2.823000193E0,3.919050217E0,8.227950096E0
3.531834120E-1,-2.767950058E0,3.891000271E0,8.256000519E0
3.556268760E-1,-2.635950089E0,3.864000082E0,8.263950348E0
3.580705660E-1,-2.566050053E0,3.843000174E0,8.266050339E0
3.605141840E-1,-2.461050034E0,3.796950102E0,8.292000771E0
3.629576450E-1,-2.377050161E0,3.739950180E0,8.320950508E0
3.654012590E-1,-2.320050001E0,3.654000282E0,8.344950676E0
3.678447220E-1,-2.238000154E0,3.538950205E0,8.362050056E0
3.702883350E-1,-2.176050186E0,3.462000132E0,8.401950836E0
3.727317990E-1,-2.131050110E0,3.342000246E0,8.446050644E0
3.751754120E-1,-2.085000038E0,3.201000214E0,8.544000626E0
3.776188900E-1,-2.095050097E0,3.127050161E0,8.637000084E0
3.800625030E-1,-2.113950014E0,3.040950060E0,8.788050652E0
3.825061960E-1,-2.203050137E0,3.019050121E0,8.914950371E0
3.849495820E-1,-2.310000181E0,3.033000231E0,9.043950081E0
3.873932730E-1,-2.422950029E0,3.105000257E0,9.205050468E0
3.898366600E-1,-2.554950237E0,3.175050259E0,9.394050598E0
3.922803500E-1,-2.667000055E0,3.208050251E0,9.589950562E0
3.947237370E-1,-2.710050106E0,3.249000072E0,9.738000870E0
3.971674270E-1,-2.739000082E0,3.301950216E0,9.844050407E0
3.996108230E-1,-2.760000229E0,3.310950041E0,9.916050911E0
4.020545130E-1,-2.752950191E0,3.333000183E0,9.930000305E0
4.044979770E-1,-2.775000095E0,3.397050142E0,9.897000313E0
4.069415900E-1,-2.815050125E0,3.478950262E0,9.832050323E0
4.093850540E-1,-2.847000122E0,3.538950205E0,9.745950699E0
4.118286870E-1,-2.883000135E0,3.570000172E0,9.619050026E0
4.142721510E-1,-2.875050068E0,3.613050222E0,9.513000488E0
4.167157640E-1,-2.914050102E0,3.622050285E0,9.407999992E0
4.191592280E-1,-2.916000128E0,3.601050138E0,9.303000450E0
4.216028410E-1,-2.890050173E0,3.567000151E0,9.171000481E0
4.240465330E-1,-2.887050152E0,3.531000137E0,9.078000069E0
4.264899970E-1,-2.896950245E0,3.463950157E0,8.970000267E0
4.289336100E-1,-2.883000135E0,3.466950178E0,8.890950203E0
4.313770740E-1,-2.953950167E0,3.466950178E0,8.829000473E0
4.338206870E-1,-3.036000252E0,3.538950205E0,8.800050735E0
4.362641750E-1,-3.127050161E0,3.595950127E0,8.806950569E0
4.387077880E-1,-3.244050264E0,3.687000275E0,8.812050819E0
4.411512520E-1,-3.330000162E0,3.769050121E0,8.812050819E0
4.435949420E-1,-3.451950073E0,3.831000090E0,8.773950577E0
4.460383290E-1,-3.510000229E0,3.910050154E0,8.734950066E0
4.484820150E-1,-3.598050117E0,3.958050251E0,8.698950768E0
4.509254020E-1,-3.639000177E0,4.018050194E0,8.722949982E0
4.533690920E-1,-3.687000275E0,4.039050102E0,8.728050232E0
4.558127070E-1,-3.688950062E0,4.072950363E0,8.722949982E0
4.582561710E-1,-3.706050158E0,4.081950188E0,8.697000504E0
4.606997840E-1,-3.699000120E0,4.092000008E0,8.650950432E0
4.631432480E-1,-3.709050179E0,4.087049961E0,8.521950722E0
4.655868610E-1,-3.742050171E0,4.087049961E0,8.379000664E0
4.680303250E-1,-3.652950287E0,4.080000401E0,8.239950180E0
4.704739380E-1,-3.574050188E0,4.080000401E0,8.103000641E0
4.729174110E-1,-3.469050169E0,4.021950245E0,8.026950836E0
4.753610240E-1,-3.390000105E0,3.949950218E0,7.962000370E0
4.778047160E-1,-3.256050110E0,3.883050203E0,7.960050583E0
4.802481800E-1,-3.196050167E0,3.790050268E0,7.921050549E0
4.826917930E-1,-3.097950220E0,3.718050241E0,7.945050240E0
4.851352670E-1,-3.021000147E0,3.570000172E0,7.974000454E0
4.875788800E-1,-3.001950026E0,3.478950262E0,8.115000725E0
4.900223440E-1,-3.013950109E0,3.448050261E0,8.199000359E0
4.924659570E-1,-3.001950026E0,3.426000118E0,8.272950172E0
4.949094210E-1,-3.001950026E0,3.439950228E0,8.344950676E0
4.973530380E-1,-3.004950047E0,3.405000210E0,8.320950508E0
4.997965020E-1,-3.043050051E0,3.382950068E0,8.323050499E0
5.022401920E-1,-3.048000097E0,3.376050234E0,8.256000519E0
5.046838090E-1,-3.079050064E0,3.390000105E0,8.158050537E0
5.071272710E-1,-3.076050043E0,3.352050066E0,7.995000362E0
5.095708650E-1,-3.097950220E0,3.366000175E0,7.906950474E0
5.120143290E-1,-3.145950079E0,3.429000139E0,7.821000576E0
5.144579420E-1,-3.211050034E0,3.472050190E0,7.837050438E0
5.169014060E-1,-3.282000065E0,3.529050112E0,7.915950298E0
5.193450190E-1,-3.340050220E0,3.534000158E0,8.065050125E0
5.217884830E-1,-3.354000092E0,3.510000229E0,8.170050621E0
5.242321730E-1,-3.382950068E0,3.442950249E0,8.302050591E0
5.266757900E-1,-3.349050045E0,3.400050163E0,8.449950218E0
5.291192520E-1,-3.328050137E0,3.337950230E0,8.613000870E0
5.315628510E-1,-3.316050053E0,3.282000065E0,8.793000221E0
5.340063150E-1,-3.273000240E0,3.247050047E0,8.938950539E0
5.364499280E-1,-3.265950203E0,3.225000143E0,9.055950165E0
5.388933920E-1,-3.225000143E0,3.193950176E0,9.142050743E0
5.413370050E-1,-3.160050154E0,3.181950092E0,9.178050041E0
5.437804590E-1,-3.166950226E0,3.103050232E0,9.207000732E0
5.462240720E-1,-3.151050091E0,3.088950157E0,9.202050209E0
5.486675360E-1,-3.190950155E0,3.081000090E0,9.280950546E0
5.511111490E-1,-3.282000065E0,3.136050224E0,9.303000450E0
5.535546130E-1,-3.370950222E0,3.175050259E0,9.316950798E0
5.559982360E-1,-3.475950241E0,3.214950085E0,9.274050713E0
5.584419280E-1,-3.643950224E0,3.268050194E0,9.226050377E0
5.608853920E-1,-3.754050255E0,3.361050129E0,9.079950333E0
5.633290050E-1,-3.919050217E0,3.402000189E0,8.929050446E0
5.657724690E-1,-4.033950329E0,3.498000145E0,8.829000473E0
5.682160670E-1,-4.173000336E0,3.562950134E0,8.686950684E0
5.706595310E-1,-4.278000355E0,3.619950056E0,8.640000343E0
5.731031440E-1,-4.378950119E0,3.586950064E0,8.647050858E0
5.755466080E-1,-4.426949978E0,3.583950281E0,8.785950661E0
5.779902210E-1,-4.432050228E0,3.534000158E0,8.983950615E0
5.804336900E-1,-4.361999989E0,3.439950228E0,9.220950127E0
5.828773030E-1,-4.305000305E0,3.340050220E0,9.384000778E0
5.853209950E-1,-4.128000259E0,3.244050264E0,9.511050224E0
5.877644590E-1,-3.997950077E0,3.190950155E0,9.609000206E0
5.902080720E-1,-3.916950226E0,3.177000046E0,9.706950188E0
5.926515650E-1,-3.862050295E0,3.193950176E0,9.741000175E0
5.950949490E-1,-3.826050282E0,3.175050259E0,9.709950447E0
5.975386400E-1,-3.840000153E0,3.189000130E0,9.589950562E0
5.999822550E-1,-3.826050282E0,3.196050167E0,9.379050255E0
6.024257190E-1,-3.844950199E0,3.211050034E0,9.123000145E0
6.048693110E-1,-3.895050287E0,3.247050047E0,8.872050285E0
6.073127750E-1,-3.925950289E0,3.357000113E0,8.697000504E0
6.097563880E-1,-4.027050018E0,3.450000048E0,8.529000282E0
6.121998520E-1,-4.120050430E0,3.559950113E0,8.380949974E0
6.146434650E-1,-4.174950123E0,3.646050215E0,8.302050591E0
6.170869280E-1,-4.261950016E0,3.723000288E0,8.275950432E0
6.195305420E-1,-4.309950352E0,3.745050192E0,8.280000687E0
6.219740050E-1,-4.266000271E0,3.694050074E0,8.296950340E0
6.244176960E-1,-4.161000252E0,3.627000093E0,8.268000603E0
6.268613130E-1,-4.057950020E0,3.559950113E0,8.248950005E0
6.293047510E-1,-3.922050238E0,3.486000061E0,8.211000443E0
6.317483640E-1,-3.850050211E0,3.439950228E0,8.188950539E0
6.341918280E-1,-3.828000069E0,3.466950178E0,8.182050705E0
6.366354410E-1,-3.835050106E0,3.529050112E0,8.188950539E0
6.390789100E-1,-3.913950205E0,3.591000080E0,8.146050453E0
6.415225230E-1,-4.005000114E0,3.691950083E0,8.113050461E0
6.439659860E-1,-4.108050346E0,3.816000223E0,8.050950050E0
6.464096000E-1,-4.210950375E0,3.912000179E0,7.987950325E0
6.488532920E-1,-4.309950352E0,3.973950148E0,7.951950550E0
6.512967510E-1,-4.338000298E0,4.021950245E0,7.866000175E0
6.537403640E-1,-4.361999989E0,4.089000225E0,7.782000542E0
6.561838280E-1,-4.372050285E0,4.117949963E0,7.689000130E0
6.586274410E-1,-4.384050369E0,4.153950214E0,7.620000362E0
6.610709050E-1,-4.285950184E0,4.117949963E0,7.531050205E0
6.635144890E-1,-4.173000336E0,4.057950020E0,7.489950180E0
6.659579530E-1,-4.072050095E0,3.984000206E0,7.485000134E0
6.684015660E-1,-3.904950142E0,3.910050154E0,7.476000309E0
6.708452580E-1,-3.787950277E0,3.823950291E0,7.543050289E0
6.732887220E-1,-3.661050081E0,3.796950102E0,7.669950485E0
6.757323060E-1,-3.570000172E0,3.778050184E0,7.789950371E0
6.781757700E-1,-3.475950241E0,3.747000217E0,7.945050240E0
6.806193830E-1,-3.376050234E0,3.703950167E0,8.071949959E0
6.830628470E-1,-3.294000149E0,3.642000198E0,8.199000359E0
6.855064600E-1,-3.178950071E0,3.555000067E0,8.299950600E0
6.879499050E-1,-3.081000090E0,3.481050253E0,8.434050560E0
6.903935180E-1,-2.974050045E0,3.376050234E0,8.533950806E0
6.928372100E-1,-2.908950090E0,3.298950195E0,8.647050858E0
6.952805970E-1,-2.872950077E0,3.294000149E0,8.701950073E0
6.977242870E-1,-2.917950153E0,3.289950132E0,8.776050568E0
7.001677560E-1,-2.985000134E0,3.318000078E0,8.838000298E0
7.026113690E-1,-3.093000174E0,3.394950151E0,8.869050026E0
7.050548330E-1,-3.220050097E0,3.466950178E0,8.881050110E0
7.074984460E-1,-3.340050220E0,3.538950205E0,8.830950737E0
7.099419100E-1,-3.450000048E0,3.595950127E0,8.730000496E0
7.123855370E-1,-3.534000158E0,3.643950224E0,8.575050354E0
7.148290010E-1,-3.642000198E0,3.733050108E0,8.407050133E0
7.172726140E-1,-3.703950167E0,3.757050276E0,8.235000610E0
7.197163060E-1,-3.700950146E0,3.808950186E0,8.098050117E0
7.221596930E-1,-3.700950146E0,3.816000223E0,8.023950577E0
7.246034020E-1,-3.676950216E0,3.811950207E0,7.938000202E0
7.270468660E-1,-3.627000093E0,3.826050282E0,7.951950550E0
7.294904790E-1,-3.591000080E0,3.808950186E0,7.987950325E0
7.319339430E-1,-3.582000256E0,3.820950270E0,8.023950577E0
7.343775560E-1,-3.535950184E0,3.808950186E0,8.077050209E0
7.368210160E-1,-3.510000229E0,3.784950256E0,8.083950043E0
7.392646290E-1,-3.474000216E0,3.742050171E0,8.095950127E0
7.417080930E-1,-3.463950157E0,3.712950230E0,8.103000641E0
7.441517060E-1,-3.382950068E0,3.646050215E0,8.094000816E0
7.465951690E-1,-3.328050137E0,3.595950127E0,8.055000305E0
7.490387870E-1,-3.201000214E0,3.555000067E0,8.077050209E0
7.514822500E-1,-3.103050232E0,3.490950108E0,8.058000565E0
7.539259410E-1,-3.033000231E0,3.430950165E0,7.915950298E0
7.563693270E-1,-2.985000134E0,3.426000118E0,7.753950596E0
7.588130180E-1,-2.976000071E0,3.397050142E0,7.687050343E0
7.612566330E-1,-2.953950167E0,3.330000162E0,7.717950344E0
7.637000970E-1,-2.914050102E0,3.229950190E0,7.689000130E0
7.661437100E-1,-2.890050173E0,3.148050070E0,7.753950596E0
7.685871740E-1,-2.844000101E0,3.093000174E0,7.849050522E0
7.710307870E-1,-2.808000088E0,3.043050051E0,7.960050583E0
7.734742600E-1,-2.743950129E0,3.043050051E0,8.138999939E0
7.759178740E-1,-2.739000082E0,3.052950144E0,8.266050339E0
7.783613370E-1,-2.680950165E0,3.121950150E0,8.452950478E0
7.808050280E-1,-2.713050127E0,3.177000046E0,8.605950356E0
7.832486450E-1,-2.728950024E0,3.232050180E0,8.740050316E0
7.856920780E-1,-2.803950071E0,3.277950048E0,8.817000389E0
7.881356910E-1,-2.890050173E0,3.289950132E0,8.838000298E0
7.905791550E-1,-3.033000231E0,3.265950203E0,8.824049950E0
7.930227680E-1,-3.076050043E0,3.262950182E0,8.728050232E0
7.954662320E-1,-3.160050154E0,3.205950260E0,8.625000000E0
7.979098650E-1,-3.249000072E0,3.189000130E0,8.460000038E0
8.003533280E-1,-3.318000078E0,3.189000130E0,8.284950256E0
8.027970190E-1,-3.358950138E0,3.208050251E0,8.140950203E0
8.052406360E-1,-3.334950209E0,3.259050131E0,8.011950493E0
8.076840980E-1,-3.349050045E0,3.310950041E0,7.900050163E0
8.101277300E-1,-3.361050129E0,3.364050150E0,7.801950455E0
8.125711940E-1,-3.340050220E0,3.400050163E0,7.756050587E0
8.150148070E-1,-3.333000183E0,3.450000048E0,7.758000374E0
8.174582710E-1,-3.262950182E0,3.424050093E0,7.762950420E0
8.199018890E-1,-3.265950203E0,3.438000202E0,7.761000156E0
8.223453530E-1,-3.234000206E0,3.448050261E0,7.726950169E0
8.247890430E-1,-3.189000130E0,3.412050247E0,7.689000130E0
8.272324290E-1,-3.217950106E0,3.405000210E0,7.675050259E0
8.296761200E-1,-3.214950085E0,3.424050093E0,7.701000214E0
8.321197300E-1,-3.208050251E0,3.382950068E0,7.746000290E0
8.345631940E-1,-3.217950106E0,3.412050247E0,7.786950588E0
8.370068070E-1,-3.262950182E0,3.436050177E0,7.857000351E0
8.394502710E-1,-3.289950132E0,3.457050085E0,8.014950752E0
8.418938840E-1,-3.273000240E0,3.451950073E0,8.218050003E0
8.443373480E-1,-3.256050110E0,3.417000055E0,8.428950310E0
8.467809610E-1,-3.202950239E0,3.382950068E0,8.659049988E0
8.492244250E-1,-3.108000040E0,3.286950111E0,8.862000465E0
8.516681150E-1,-3.000000238E0,3.139050245E0,9.058950424E0
8.541115010E-1,-2.926050186E0,3.025950193E0,9.211950302E0
8.565551970E-1,-2.866050243E0,2.941950083E0,9.307950020E0
8.589988120E-1,-2.835000038E0,2.914050102E0,9.291000366E0
8.614422760E-1,-2.860950232E0,2.896950245E0,9.231000900E0
8.638858890E-1,-2.892000198E0,2.904000044E0,9.102000237E0
8.663293530E-1,-2.926050186E0,2.976000071E0,8.929050446E0
8.687729800E-1,-2.947050095E0,3.012000084E0,8.764050484E0
8.712164440E-1,-3.055050135E0,3.076950073E0,8.623050690E0
8.736600570E-1,-3.117000103E0,3.144000053E0,8.488950729E0
8.761035200E-1,-3.196050167E0,3.187050104E0,8.376000404E0
8.785471340E-1,-3.309000254E0,3.271050215E0,8.278050423E0
8.809906170E-1,-3.433050156E0,3.328050137E0,8.254050255E0
8.834342310E-1,-3.499950171E0,3.358950138E0,8.197050095E0
8.858779230E-1,-3.547950268E0,3.388050079E0,8.158050537E0
8.883213870E-1,-3.637050152E0,3.385050058E0,8.091000557E0
8.907650000E-1,-3.682050228E0,3.373050213E0,8.029050827E0
8.932084590E-1,-3.724950075E0,3.376050234E0,7.951950550E0
8.956520720E-1,-3.802050114E0,3.385050058E0,7.854000568E0
8.980955360E-1,-3.828000069E0,3.450000048E0,7.809000492E0
9.005391490E-1,-3.850050211E0,3.469050169E0,7.750950336E0
9.029826120E-1,-3.816000223E0,3.478950262E0,7.768050194E0
9.054262930E-1,-3.607950211E0,3.286950111E0,8.034000397E0
9.078699100E-1,-3.258000135E0,2.896950245E0,8.497950554E0
9.103133720E-1,-2.760000229E0,2.320050001E0,9.283950806E0
9.127569850E-1,-2.550000191E0,1.810050130E0,1.050495052E1
9.152004490E-1,-2.698050022E0,1.386000037E0,1.203900051E1
9.176440480E-1,-3.214950085E0,1.092000008E0,1.338495064E1
9.200875120E-1,-3.709050179E0,1.168050051E0,1.371105099E1
9.225312020E-1,-3.960000277E0,1.674000025E0,1.230495071E1
9.249748190E-1,-3.993000269E0,2.289000034E0,9.762000084E0
9.274182810E-1,-4.123050213E0,2.884950161E0,7.030950546E0
9.298618940E-1,-4.539000034E0,3.502950191E0,5.043000221E0
9.323053580E-1,-5.008950233E0,4.033950329E0,4.584000111E0
9.347489710E-1,-5.641050339E0,4.498950005E0,5.079000473E0
9.371924350E-1,-6.748950481E0,5.041950226E0,5.923950195E0
9.396360330E-1,-7.827000141E0,5.334000111E0,6.705000401E0
9.420794970E-1,-8.332050323E0,5.301000118E0,6.966000557E0
9.445231100E-1,-7.731000423E0,4.858050346E0,6.760050297E0
9.469665740E-1,-6.589050293E0,4.338000298E0,6.408000469E0
9.494101870E-1,-5.731950283E0,3.948000193E0,6.154050350E0
9.518536510E-1,-5.217000484E0,3.745050192E0,6.115950108E0
9.542972640E-1,-4.828950405E0,3.742050171E0,6.292950153E0
9.567407270E-1,-4.398000240E0,3.828000069E0,6.643050194E0
9.591844180E-1,-3.993000269E0,3.936000109E0,7.045050144E0
9.616280350E-1,-3.676950216E0,4.033950329E0,7.332000256E0
9.640714830E-1,-3.531000137E0,4.063050270E0,7.387050152E0
9.665150960E-1,-3.565050125E0,4.063050270E0,7.236000538E0
9.689585600E-1,-3.642000198E0,4.052999973E0,6.937050343E0
9.714021730E-1,-3.804000139E0,4.015050411E0,6.646950245E0
9.738456370E-1,-3.973950148E0,4.056000233E0,6.343050480E0
9.762892450E-1,-3.970050097E0,4.063050270E0,6.106050491E0
9.787329370E-1,-3.900000095E0,4.128000259E0,5.956050396E0
9.811764010E-1,-3.670050144E0,4.197000027E0,5.898000240E0
9.836200140E-1,-3.454950094E0,4.225950241E0,5.893050194E0
9.860634780E-1,-3.436050177E0,4.561050415E0,5.854950428E0
9.885070710E-1,-3.607950211E0,4.741050243E0,5.601000309E0
9.909505350E-1,-3.928950071E0,4.501049995E0,5.152950287E0
9.933941480E-1,-4.290000439E0,4.117949963E0,4.710000038E0
9.958376120E-1,-4.575000286E0,3.733050108E0,4.275000095E0
9.982813020E-1,-4.819950104E0,3.381000042E0,4.038000107E0
1.000724904E0,-4.909950256E0,3.193950176E0,4.834950447E0
1.003168366E0,-4.717050076E0,2.863050222E0,5.232000351E0
1.005611979E0,-4.480050087E0,2.701050043E0,4.560000420E0
1.008055443E0,-4.288050175E0,2.988000154E0,3.894000292E0
1.010499056E0,-4.234950066E0,3.337950230E0,3.516000271E0
1.012942516E0,-4.144050121E0,3.706050158E0,3.307050228E0
1.015386129E0,-4.029000282E0,4.188000202E0,2.593950033E0
1.017829593E0,-4.147050381E0,4.341000080E0,2.769000053E0
1.020273283E0,-4.104000092E0,4.213950157E0,3.613950253E0
1.022716670E0,-4.063050270E0,4.077000141E0,4.404000282E0
1.025160359E0,-4.003050327E0,4.027050018E0,4.954950333E0
1.027603746E0,-3.904950142E0,3.976950169E0,5.352000237E0
1.030047436E0,-3.643950224E0,3.895050287E0,5.449950218E0
1.032491051E0,-3.454950094E0,3.960000277E0,5.368950367E0
1.034934515E0,-3.154950142E0,4.041000366E0,5.071950436E0
1.037378128E0,-2.866050243E0,4.164000034E0,6.034950256E0
1.039821592E0,-2.554950237E0,4.317000389E0,6.499050140E0
1.042265205E0,-2.329050064E0,4.386000156E0,5.284950256E0
1.044708669E0,-2.158950090E0,4.188000202E0,4.902000427E0
1.047152359E0,-2.179050207E0,4.021950245E0,5.101050377E0
1.049595742E0,-2.221950054E0,3.673050165E0,4.878000259E0
1.052039432E0,-2.818050146E0,3.874050140E0,4.660050392E0
1.054483047E0,-3.382950068E0,4.161000252E0,4.405950069E0
1.056926511E0,-3.768000126E0,4.321950436E0,4.200000286E0
1.059370119E0,-4.111050129E0,4.495950222E0,4.195950031E0
1.061813583E0,-4.432050228E0,4.767000198E0,4.701000214E0
1.064257196E0,-4.932000160E0,5.071050167E0,5.185050011E0
1.066700660E0,-5.631000042E0,5.494950294E0,5.650950432E0
1.069144350E0,-6.381000519E0,6.037950516E0,5.818950176E0
1.071587948E0,-7.081950188E0,6.511950493E0,5.665950298E0
1.074031410E0,-7.459950447E0,6.892950535E0,5.211000443E0
1.076475023E0,-7.563000202E0,7.080000401E0,4.798950195E0
1.078918487E0,-7.456050396E0,7.195050240E0,4.738950253E0
1.081362100E0,-7.081950188E0,7.270950317E0,4.849050045E0
1.083805564E0,-6.673050404E0,7.360050201E0,5.377950191E0
1.086249177E0,-6.282000065E0,7.417050362E0,6.231000423E0
1.088692641E0,-6.049950123E0,7.474950314E0,6.670950413E0
1.091136331E0,-5.875050068E0,7.495950222E0,7.071000099E0
1.093579718E0,-5.890050411E0,7.555950165E0,7.344000340E0
1.096023417E0,-6.127050400E0,7.575000286E0,7.284000397E0
1.098467032E0,-6.469050407E0,7.693050385E0,7.234050274E0
1.100910496E0,-6.831000328E0,7.720950603E0,7.191000462E0
1.103354109E0,-7.183050156E0,7.726050377E0,7.047000408E0
1.105797573E0,-7.413000584E0,7.647000313E0,6.706950188E0
1.108241181E0,-7.525050163E0,7.474950314E0,6.094050407E0
1.110684645E0,-7.566000462E0,7.246950150E0,5.374050140E0
1.113128258E0,-7.518000126E0,7.015050411E0,4.813050270E0
1.115571722E0,-7.462950230E0,6.775950432E0,4.648050308E0
1.118015412E0,-7.465050220E0,6.532050133E0,4.666950226E0
1.120459034E0,-7.570950508E0,6.201000214E0,4.702950001E0
1.122902496E0,-7.669050217E0,5.887050152E0,4.603050232E0
1.125346109E0,-7.812000275E0,5.599950314E0,4.501950264E0
1.127789573E0,-8.017950058E0,5.389050484E0,4.588050365E0
1.130233186E0,-8.197950363E0,5.209950447E0,4.798950195E0
1.132676650E0,-8.197950363E0,5.037000179E0,4.969050407E0
1.135120263E0,-8.044950485E0,4.894050121E0,4.918950081E0
1.137563727E0,-7.828950405E0,4.774050236E0,4.561950207E0
1.140007417E0,-7.675950527E0,4.699950218E0,3.970950127E0
1.142451035E0,-7.498950481E0,4.683000088E0,3.505950212E0
1.144894496E0,-7.266000271E0,4.791000366E0,3.319050074E0
1.147338109E0,-7.012950420E0,5.064000130E0,3.268950224E0
1.149781573E0,-6.784950256E0,5.373000145E0,3.274050236E0
1.152225186E0,-6.700950146E0,5.707950115E0,3.262050152E0
1.154668650E0,-6.603000164E0,5.887050152E0,3.166050196E0
1.157112263E0,-6.402000427E0,5.962050438E0,2.989050150E0
1.159555956E0,-6.931050301E0,6.117000103E0,2.647050142E0
1.161999419E0,-7.638000488E0,6.226950169E0,2.266050100E0
1.164443033E0,-8.113950729E0,6.204000473E0,1.933050036E0
1.166886496E0,-8.293950081E0,6.172050476E0,1.630950093E0
1.169330114E0,-8.217000008E0,6.117000103E0,1.287000060E0
1.171773578E0,-8.100000381E0,6.105000496E0,8.220000267E-1
1.174217191E0,-8.107049942E0,6.156000137E0,3.270000219E-1
1.176660655E0,-8.263050079E0,6.280050278E0,-1.249500066E-1
1.179104268E0,-8.551950455E0,6.426000118E0,-5.560500026E-1
1.181547732E0,-8.959050179E0,6.603000164E0,-9.649500251E-1
1.183991345E0,-9.417000771E0,6.807000160E0,-1.264950037E0
1.186435038E0,-9.888000488E0,7.044000149E0,-1.365000010E0
1.188878501E0,-1.029300022E1,7.197000504E0,-1.300950050E0
1.191322110E0,-1.062600040E1,7.338000298E0,-1.068000078E0
1.193765573E0,-1.085100079E1,7.360050201E0,-8.100000620E-1
1.196209186E0,-1.094595051E1,7.389000416E0,-6.130500436E-1
1.198652650E0,-1.079295063E1,7.390950203E0,-4.390500188E-1
1.201096263E0,-1.032600021E1,7.470000267E0,-1.900500059E-1
1.203539732E0,-9.607950211E0,7.645050526E0,1.830000132E-1
1.205983345E0,-8.803950310E0,7.863000393E0,7.480500340E-1
1.208427038E0,-8.137949944E0,8.071050644E0,1.416000009E0
1.210870501E0,-7.705050468E0,8.227050781E0,2.029050112E0
1.213314115E0,-7.578000546E0,8.265000343E0,2.472000122E0
1.215757578E0,-7.693050385E0,8.171999931E0,2.770950079E0
1.218201192E0,-8.025000572E0,7.972950459E0,2.874000072E0
1.220644655E0,-8.348999977E0,7.723950386E0,2.742000103E0
1.223088268E0,-8.728950500E0,7.465050220E0,2.455050230E0
1.225531961E0,-9.045000076E0,7.222950459E0,2.185050011E0
1.227975424E0,-9.306000710E0,7.045950413E0,2.091000080E0
1.230419038E0,-9.478950500E0,7.027050495E0,2.143949986E0
1.232862501E0,-9.594000816E0,7.125000477E0,2.244000196E0
1.235306115E0,-9.499950409E0,7.135050297E0,2.374050140E0
1.237749578E0,-9.256050110E0,7.057950497E0,2.344950199E0
1.240193196E0,-8.989950180E0,6.973950386E0,2.019000053E0
1.242636659E0,-8.788949966E0,6.796950340E0,1.492950082E0
1.245080273E0,-8.657999992E0,6.583950520E0,8.800500631E-1
1.247523736E0,-8.623950005E0,6.466950417E0,4.180500209E-1
1.249967349E0,-8.743950844E0,6.328050137E0,2.380500138E-1
1.252410818E0,-8.947050095E0,6.306000233E0,2.599500120E-1
1.254854431E0,-9.136050224E0,6.342000484E0,4.249500334E-1
1.257298124E0,-9.304050446E0,6.366000175E0,5.920500159E-1
1.259741587E0,-9.486000061E0,6.430950165E0,7.480500340E-1
1.262185201E0,-9.484050751E0,6.342000484E0,8.700000644E-1
1.264628669E0,-9.316050529E0,6.261000156E0,9.709500670E-1
1.267072283E0,-9.019050598E0,6.141000271E0,1.093050003E0
1.269515746E0,-8.595000267E0,6.045000076E0,1.093050003E0
1.271959360E0,-8.107049942E0,5.971050262E0,8.100000620E-1
1.274403052E0,-7.599000454E0,5.952000141E0,3.600000143E-1
1.276846515E0,-7.269000530E0,6.076950073E0,-7.950000465E-3
1.279290129E0,-7.177950382E0,6.250950336E0,-2.040000111E-1
1.281733592E0,-7.353000164E0,6.349950314E0,-2.350500077E-1
1.284177206E0,-7.603950500E0,6.357000351E0,-8.700000495E-2
1.286620669E0,-7.807950497E0,6.250950336E0,1.999500096E-1
1.289064273E0,-8.002050400E0,6.121950150E0,6.280500293E-1
1.291507965E0,-8.173950195E0,5.940000057E0,1.177050114E0
1.293951352E0,-8.293950081E0,5.803950310E0,1.657950044E0
1.296395042E0,-8.385000229E0,5.737050056E0,1.978950143E0
1.298838520E0,-8.464050293E0,5.647950172E0,2.103000164E0
1.301282134E0,-8.452050209E0,5.610000134E0,2.082000017E0
1.303725597E0,-8.257950783E0,5.533050060E0,2.070000172E0
1.306169211E0,-7.996950150E0,5.428050041E0,2.194050074E0
1.308612674E0,-7.630050182E0,5.305950165E0,2.484000206E0
1.311056283E0,-7.237950325E0,5.137950420E0,2.785050154E0
1.313499746E0,-6.856950283E0,5.008950233E0,3.148950100E0
1.315943360E0,-6.541050434E0,4.828950405E0,3.511050224E0
1.318386823E0,-6.418950081E0,4.662000179E0,3.817050219E0
1.320830437E0,-6.304050446E0,4.506000042E0,3.963000298E0
1.323273900E0,-6.330000401E0,4.348050117E0,3.970950127E0
1.325717590E0,-6.382950306E0,4.188000202E0,3.846000195E0
1.328161208E0,-6.582000256E0,4.024950027E0,3.622950077E0
1.330604669E0,-6.835950375E0,3.927000284E0,3.336000204E0
1.333048283E0,-7.089000225E0,3.886050224E0,3.073050261E0
1.335491765E0,-7.225950241E0,3.879000187E0,2.863950253E0
1.337935379E0,-7.285950184E0,3.816000223E0,2.742000103E0
1.340379071E0,-7.221000195E0,3.748950243E0,2.599050045E0
1.342822535E0,-7.045950413E0,3.715950251E0,2.335050106E0
1.345266148E0,-6.892950535E0,3.687000275E0,1.999950051E0
1.347709611E0,-6.804000378E0,3.678000212E0,1.654950023E0
1.350153225E0,-6.816000462E0,3.697050095E0,1.347000122E0
1.352596688E0,-6.850050449E0,3.784950256E0,9.660000205E-1
1.355040379E0,-6.984000206E0,3.823950291E0,4.489500225E-1
1.357483996E0,-7.128000259E0,3.868950129E0,-2.700000070E-2
1.359927405E0,-7.209000111E0,3.883050203E0,-4.360500276E-1
1.362371095E0,-7.195050240E0,3.867000103E0,-7.450500131E-1
1.364814559E0,-7.161000252E0,3.844950199E0,-1.080000043E0
1.367258172E0,-7.258950233E0,3.903000116E0,-1.468050122E0
1.369701636E0,-7.381050587E0,4.080000401E0,-1.870050073E0
1.372145254E0,-7.495950222E0,4.309950352E0,-2.218050003E0
1.374588717E0,-7.462950230E0,4.537050247E0,-2.569950104E0
1.377032331E0,-7.305000305E0,4.738050461E0,-2.869050026E0
1.379475794E0,-6.634050369E0,4.834050179E0,-3.277950048E0
1.381919408E0,-6.357000351E0,4.867050171E0,-4.044000149E0
1.384362890E0,-7.800000191E0,5.325000286E0,-4.243050098E0
1.386806581E0,-8.863050461E0,5.704950333E0,-4.315050125E0
1.389250198E0,-8.871000290E0,5.848950386E0,-4.672049999E0
1.391693660E0,-8.542950630E0,5.914050102E0,-5.200950146E0
1.394137273E0,-8.380050659E0,5.980950356E0,-5.743950367E0
1.396580731E0,-8.515950203E0,6.144000053E0,-6.036000252E0
1.399024345E0,-8.800950050E0,6.322950363E0,-5.967000484E0
1.401467808E0,-9.084000587E0,6.460050106E0,-5.596050262E0
1.403911499E0,-9.190950394E0,6.541050434E0,-5.071950436E0
1.406355116E0,-9.096000671E0,6.603000164E0,-4.411050320E0
1.408798593E0,-8.872950554E0,6.649050236E0,-3.726000071E0
1.411242206E0,-8.647950172E0,6.711000443E0,-3.166050196E0
1.413685670E0,-8.443950653E0,6.769050121E0,-2.803950071E0
1.416129283E0,-8.482950211E0,6.814050198E0,-2.497950077E0
1.418572747E0,-8.466000557E0,6.771000385E0,-2.143050194E0
1.421016379E0,-8.425050735E0,6.678000450E0,-1.753050089E0
1.423460071E0,-8.332050323E0,6.499950409E0,-1.324950099E0
1.425903535E0,-8.188050270E0,6.286950111E0,-7.450500131E-1
1.428347148E0,-8.080950737E0,6.112950325E0,1.500000060E-2
1.430790612E0,-8.044950485E0,6.103050232E0,7.500000596E-1
1.433234225E0,-8.107049942E0,6.184050083E0,1.168950081E0
1.435677689E0,-8.109000206E0,6.250950336E0,1.095000029E0
1.438121302E0,-8.080950737E0,6.297000408E0,6.880500317E-1
1.440564766E0,-7.990050316E0,6.256050110E0,5.805000290E-2
1.443008379E0,-7.723950386E0,6.112950325E0,-5.800500512E-1
1.445451848E0,-7.366950512E0,5.952000141E0,-1.023000002E0
1.447895461E0,-6.994050503E0,5.892000198E0,-1.317000031E0
1.450338924E0,-6.730050087E0,5.887050152E0,-1.618950129E0
1.452782615E0,-6.646050453E0,6.024000168E0,-2.042999983E0
1.455226232E0,-6.733050346E0,6.187050343E0,-2.593050241E0
1.457669694E0,-6.871050358E0,6.369000435E0,-3.268950224E0
1.460113307E0,-7.021950245E0,6.490950108E0,-4.035000324E0
1.462556771E0,-7.120050430E0,6.577050209E0,-4.870050430E0
1.465000384E0,-7.132050514E0,6.589050293E0,-5.641050339E0
1.467443848E0,-7.120050430E0,6.514950275E0,-6.120000362E0
1.469887542E0,-7.036950111E0,6.469050407E0,-6.388050079E0
1.472331159E0,-6.960000515E0,6.412050247E0,-6.534000397E0
1.474774621E0,-6.871050358E0,6.310950279E0,-6.481950283E0
1.477218234E0,-6.745050430E0,6.169950485E0,-6.280950069E0
1.479661693E0,-6.610050201E0,6.069000244E0,-6.055950165E0
1.482105306E0,-6.558000088E0,6.175050259E0,-5.661000252E0
1.484548998E0,-6.565050125E0,6.316050529E0,-5.143050194E0
1.486992385E0,-6.694050312E0,6.558000088E0,-4.618950367E0
1.489436075E0,-6.759000301E0,6.787950516E0,-4.156949997E0
1.491879525E0,-6.819000244E0,6.997950554E0,-3.835950136E0
1.494323138E0,-6.912000179E0,7.183050156E0,-3.598950148E0
1.496766602E0,-7.020000458E0,7.273950577E0,-3.451050282E0
1.499210215E0,-7.057950497E0,7.329000473E0,-3.289950132E0
1.501653679E0,-6.924000263E0,7.255050182E0,-2.979000092E0
1.504097292E0,-6.784950256E0,7.113000393E0,-2.589000225E0
1.506540756E0,-6.666000366E0,6.922050476E0,-2.265000105E0
1.508984369E0,-6.595950127E0,6.727950096E0,-2.104950190E0
1.511427833E0,-6.649050236E0,6.594000340E0,-2.026050091E0
1.513871446E0,-6.691950321E0,6.582000256E0,-1.951950073E0
1.516314910E0,-6.733050346E0,6.679950237E0,-1.887000084E0
1.518758600E0,-6.895050526E0,6.859950542E0,-1.648050070E0
1.521202217E0,-7.201950550E0,7.096950531E0,-1.351050019E0
1.523645679E0,-7.435950279E0,7.405050278E0,-1.212000012E0
1.526089292E0,-7.551000595E0,7.626000404E0,-1.365000010E0
1.528532737E0,-7.483950138E0,7.810050488E0,-1.887000084E0
1.530976350E0,-7.317000389E0,7.876950264E0,-2.545950174E0
1.533420043E0,-7.233000278E0,7.951050282E0,-3.024000168E0
1.535863506E0,-7.128000259E0,7.894050598E0,-3.268950224E0
1.538307119E0,-7.032000542E0,7.738050461E0,-3.373950243E0
1.540750597E0,-7.012950420E0,7.507950306E0,-3.469950199E0
1.543194210E0,-7.128000259E0,7.314000130E0,-3.568050146E0
1.545637674E0,-7.269000530E0,7.129950523E0,-3.645000219E0
1.548081287E0,-7.374000549E0,6.924000263E0,-3.558000088E0
1.550524980E0,-7.366950512E0,6.735000134E0,-3.321000099E0
1.552968429E0,-7.413000584E0,6.613050461E0,-3.010050058E0
1.555412043E0,-7.492050171E0,6.582000256E0,-2.713050127E0
1.557855506E0,-7.561050415E0,6.610950470E0,-2.542950153E0
1.560299120E0,-7.539000511E0,6.601050377E0,-2.653050184E0
1.562742583E0,-7.422000408E0,6.550950527E0,-3.034050226E0
1.565186195E0,-7.276050568E0,6.463950157E0,-3.349950075E0
1.567629659E0,-7.161000252E0,6.424050331E0,-3.477000237E0
1.570073272E0,-7.021950245E0,6.333000183E0,-3.448050261E0
1.572516736E0,-6.892950535E0,6.253950119E0,-3.352050066E0
1.574960349E0,-6.739950180E0,6.249000072E0,-3.240000248E0
1.577403794E0,-6.754050255E0,6.262950420E0,-3.115050077E0
1.579847407E0,-6.748950481E0,6.301950455E0,-2.956950188E0
1.582290871E0,-6.723000526E0,6.321000099E0,-2.785050154E0
1.584734561E0,-6.691950321E0,6.306000233E0,-2.569950104E0
1.587178178E0,-6.679950237E0,6.229950428E0,-2.503050089E0
1.589621655E0,-6.685050488E0,6.225000381E0,-2.581950188E0
1.592065268E0,-6.676950455E0,6.136050224E0,-2.773050070E0
1.594508732E0,-6.591000080E0,6.025950432E0,-3.027000189E0
1.596952345E0,-6.502950191E0,5.908950329E0,-3.333000183E0
1.599396033E0,-6.397050381E0,5.823000431E0,-3.781050205E0
1.601839496E0,-6.340050220E0,5.758050442E0,-4.420050144E0
1.604283110E0,-6.334950447E0,5.667000294E0,-5.017050266E0
1.606726573E0,-6.316050529E0,5.563950062E0,-5.443050385E0
1.609170187E0,-6.274950504E0,5.401050091E0,-5.637000084E0
1.611613635E0,-6.166950226E0,5.169000149E0,-5.682000160E0
1.614057248E0,-6.261000156E0,5.056950092E0,-5.613000393E0
1.616500712E0,-6.511950493E0,5.028000355E0,-5.506950378E0
1.618944402E0,-6.754050255E0,5.097000122E0,-5.349000454E0
1.621388020E0,-6.874050140E0,5.293950081E0,-5.122050285E0
1.623831476E0,-6.747000217E0,5.566950321E0,-5.047950268E0
1.626275090E0,-6.400050163E0,5.884950161E0,-5.281950474E0
1.628718553E0,-6.040950298E0,6.273000240E0,-5.656050205E0
1.631162167E0,-5.887050152E0,6.663000107E0,-5.992950439E0
1.633605630E0,-5.944950104E0,6.955050468E0,-6.193950176E0
1.636049244E0,-6.139050484E0,7.125000477E0,-6.297000408E0
1.638492707E0,-6.346950531E0,7.117950439E0,-6.277950287E0
1.640936320E0,-6.627000332E0,7.018050194E0,-6.115050316E0
1.643379784E0,-6.886050224E0,6.924000263E0,-5.968950272E0
1.645823397E0,-7.065000534E0,6.814050198E0,-5.899950504E0
1.648267086E0,-7.072950363E0,6.735000134E0,-5.980950356E0
1.650710549E0,-6.988950253E0,6.690000534E0,-6.199050426E0
1.653154163E0,-6.799950123E0,6.685050488E0,-6.493950367E0
1.655597626E0,-6.550950527E0,6.685050488E0,-6.685050488E0
1.658041240E0,-6.340050220E0,6.730050087E0,-6.642000198E0
1.660484698E0,-6.220050335E0,6.771000385E0,-6.393000126E0
1.662928312E0,-6.169950485E0,6.862050533E0,-6.001050472E0
1.665372004E0,-6.184050083E0,6.922050476E0,-5.574000359E0
1.667815467E0,-6.318000317E0,6.892950535E0,-5.080950260E0
1.670259081E0,-4.795950413E0,6.703950405E0,-4.320000172E0
1.672702548E0,-1.840950131E0,3.249000072E0,-6.724050522E0
1.675146162E0,-1.518705082E1,4.378950119E0,-4.648050308E0
1.677589625E0,-1.592895031E1,3.439950228E0,-4.320000172E0
1.680033239E0,-1.350105095E1,4.333950043E0,-2.425950050E0
1.682476702E0,-9.831000328E0,5.715000153E0,-2.002050161E0
1.684920407E0,-7.258950233E0,8.039999962E0,-1.984950066E0
1.687363794E0,-4.116000175E0,8.530950546E0,-2.078999996E0
1.689807484E0,-3.060000181E0,8.940000534E0,-2.706000090E0
1.692251100E0,-2.763000250E0,8.449049950E0,-3.499050140E0
1.694694563E0,-3.085950136E0,7.204050541E0,-3.906000137E0
1.697138177E0,-4.372050285E0,6.294000149E0,-3.930000305E0
1.699581640E0,-5.128050327E0,4.939050198E0,-3.714000225E0
1.702025254E0,-6.543000221E0,4.948950291E0,-3.300000191E0
1.704468717E0,-6.250950336E0,4.234950066E0,-2.962050200E0
1.706912331E0,-5.511000156E0,2.734050035E0,-3.031950235E0
1.709355794E0,-8.485050201E0,4.687950134E0,-2.977050066E0
1.711799408E0,-8.818050385E0,5.310000420E0,-2.866050243E0
1.714243100E0,-7.579950333E0,5.479950428E0,-2.653050184E0
1.716686563E0,-5.679000378E0,4.618050098E0,-3.022050142E0
1.719130191E0,-6.067050457E0,5.071050167E0,-3.760050297E0
1.721573654E0,-6.334950447E0,5.206950188E0,-4.417950153E0
1.724017268E0,-6.352050304E0,5.449050426E0,-4.746000290E0
1.726460731E0,-5.770050049E0,5.386950493E0,-4.669050217E0
1.728904345E0,-5.377050400E0,5.181000233E0,-4.269000053E0
1.731347813E0,-5.835000515E0,5.434950352E0,-3.895950079E0
1.733791504E0,-6.199050426E0,5.434950352E0,-3.652050257E0
1.736235121E0,-6.826050282E0,5.827950478E0,-3.781050205E0
1.738678582E0,-6.759000301E0,5.569050312E0,-4.392000198E0
1.741122196E0,-7.072950363E0,5.650050163E0,-5.227050304E0
1.743565649E0,-6.976950169E0,5.490000248E0,-6.171000481E0
1.746009263E0,-6.996000290E0,5.397000313E0,-6.831000328E0
1.748452726E0,-7.120050430E0,5.598000050E0,-7.224000454E0
1.750896417E0,-6.721050262E0,5.409000397E0,-7.477950573E0
1.753339803E0,-6.792000294E0,5.808000088E0,-7.393950462E0
1.755783490E0,-6.364050388E0,5.782050133E0,-7.320000172E0
1.758227105E0,-6.460050106E0,6.370950222E0,-6.925050259E0
1.760670569E0,-6.055050373E0,6.466950417E0,-6.505950451E0
1.763114182E0,-5.716950417E0,6.313950062E0,-5.782950401E0
1.765557645E0,-5.928000450E0,6.340050220E0,-4.948950291E0
1.768001259E0,-6.244050503E0,6.555000305E0,-4.147050381E0
1.770444722E0,-6.378000259E0,6.663000107E0,-3.429000139E0
1.772888336E0,-5.947050095E0,5.617050171E0,-2.947950125E0
1.775331799E0,-6.807000160E0,5.860950470E0,-1.971000075E0
1.777775413E0,-7.092000484E0,5.926050186E0,-1.396050096E0
1.780219090E0,-6.823950291E0,5.787000179E0,-8.959500194E-1
1.782662554E0,-6.357000351E0,5.731950283E0,-5.820000172E-1
1.785106167E0,-5.799000263E0,5.574000359E0,-5.370000005E-1
1.787549631E0,-5.502000332E0,5.571000099E0,-5.779500008E-1
1.789993244E0,-5.161950111E0,4.717050076E0,-1.003950000E0
1.792436702E0,-5.880000114E0,4.855950356E0,-1.027950048E0
1.794880393E0,-6.406950474E0,5.266950130E0,-8.839500546E-1
1.797324010E0,-6.661050320E0,5.455950260E0,-8.959500194E-1
1.799767472E0,-6.589050293E0,5.659950256E0,-9.079500437E-1
1.802211085E0,-6.342000484E0,5.643000126E0,-1.162050009E0
1.804654545E0,-6.220050335E0,5.514000416E0,-1.570950031E0
1.807098158E0,-6.289950371E0,5.317950249E0,-1.782000065E0
1.809541622E0,-6.775950432E0,5.734050274E0,-1.870050073E0
1.811985235E0,-6.867000103E0,5.737050056E0,-2.244000196E0
1.814428698E0,-6.903000355E0,5.701050282E0,-2.787000179E0
1.816872389E0,-6.643950462E0,5.514000416E0,-3.493950129E0
1.819316006E0,-6.421050072E0,5.761050224E0,-3.955950260E0
1.821759468E0,-6.294000149E0,5.884950161E0,-4.747950077E0
1.824203081E0,-6.064950466E0,5.892000198E0,-5.433000088E0
1.826646545E0,-6.043050289E0,6.093000412E0,-6.052950382E0
1.829090158E0,-7.288050175E0,1.374300098E1,-2.909100151E1
1.831533622E0,-7.860000610E0,7.012950420E0,-1.461300087E1
1.833977235E0,-7.414950371E0,8.790000677E-1,-1.162050009E0
1.836420699E0,-8.136000633E0,3.310950041E0,-8.719950676E0
1.838864312E0,-9.370950699E0,1.156050086E0,1.252950072E0
1.841307775E0,-1.128900051E1,2.554950237E0,-2.332950115E0
1.843751466E0,-1.120005035E1,5.065950394E0,-4.561950207E0
1.846195083E0,-8.940000534E0,6.936000347E0,-3.915000200E0
1.848638545E0,-5.467950344E0,7.461000443E0,-2.722950220E0
1.851082158E0,-3.237000227E0,7.828950405E0,-1.593000054E0
1.853525626E0,-2.041949987E0,7.603950500E0,-9.649500251E-1
1.855969239E0,-2.185950041E0,7.482000351E0,-8.050500154E-1
1.858412703E0,-2.974050045E0,7.057950497E0,-1.171050072E0
1.860856393E0,-4.189949989E0,6.514950275E0,-2.404050112E0
1.863300010E0,-5.389050484E0,5.959050179E0,-3.400050163E0
1.865743472E0,-5.691000462E0,5.449050426E0,-3.120000124E0
1.868187085E0,-5.839050293E0,1.195695019E1,3.789000273E0
1.870630549E0,-8.239050865E0,2.528805161E1,3.050895119E1
1.873074162E0,-8.611950874E0,3.139500022E-1,-3.690795135E1
1.875517626E0,-5.887050152E0,-1.078950047E0,-1.383495045E1
1.877961230E0,-2.977950096E0,-1.024049997E0,-6.274050236E0
1.880404922E0,-4.096050262E0,3.043050051E0,-8.779950142E0
1.882848309E0,-7.350000381E0,3.168405151E1,-1.893705177E1
1.885291999E0,-2.599950075E0,9.055050850E0,9.778950691E0
1.887735463E0,-6.040950298E0,-9.403950691E0,-1.352295017E1
1.890179095E0,-9.651000023E0,2.033205032E1,-9.465000153E0
1.892622559E0,-9.928950310E0,2.361495018E1,-1.103100014E1
1.895066172E0,-6.724950314E0,2.515950203E0,-6.022050381E0
1.897509636E0,-9.790050507E0,1.056600094E1,-1.036500072E1
1.899953249E0,-9.397050858E0,1.034595013E1,-1.055205059E1
1.902396713E0,-7.582950592E0,1.651950121E0,-8.706000328E0
1.904840326E0,-7.168050289E0,3.007050037E0,-4.914000034E0
1.907283790E0,-7.293000221E0,8.377950668E0,-6.444000244E0
1.909727480E0,-5.782050133E0,2.587950230E0,-1.023105049E1
1.912171082E0,-3.448050261E0,5.707950115E0,1.449000120E0
1.914614544E0,-4.099050045E0,4.963050365E0,-1.722000122E0
1.917058157E0,-3.241950035E0,1.425000072E0,4.294050217E0
1.919501621E0,-4.470000267E0,5.569050312E0,3.999000072E0
1.921945234E0,-4.876950264E0,7.681050301E0,3.741000175E0
1.924388923E0,-6.202950478E0,7.200000286E0,6.003000259E0
1.926832309E0,-6.519000530E0,9.177000046E0,-2.380500138E-1
1.929275999E0,-6.787950516E0,8.076000214E0,6.160500050E-1
1.931719463E0,-6.654000282E0,8.080950737E0,-7.810500264E-1
1.934163076E0,-6.682050228E0,1.038900089E1,-1.135050058E0
1.936606535E0,-8.595000267E0,7.647000313E0,-4.699950218E0
1.939050148E0,-6.144000053E0,1.462695026E1,5.601000309E0
1.941493612E0,-7.132050514E0,1.255995083E1,-1.191705036E1
1.943937225E0,-6.655950546E0,9.238950729E0,-1.045905018E1
1.946380689E0,-6.133950233E0,7.908000469E0,-6.199050426E0
1.948824302E0,-5.176050186E0,1.693050027E0,-1.119600010E1
1.951267995E0,-4.111050129E0,-5.860500336E-1,-7.198050499E0
1.953711381E0,-3.976950169E0,-3.688950062E0,-1.045605087E1
1.956155071E0,-1.603950024E0,-7.078950405E0,-5.040000439E0
1.958598535E0,-2.029950142E0,3.127050161E0,-1.867950082E0
1.961042153E0,-2.623950243E0,-3.010500073E-1,-6.135000229E0
1.963485617E0,-3.937950134E0,-2.374050140E0,-7.096950531E0
1.965929230E0,-3.136050224E0,-5.209500194E-1,-5.092950344E0
1.968372694E0,-8.260500431E-1,1.312050104E0,-1.495050073E0
1.970816307E0,8.200500607E-1,1.939500123E-1,7.960500121E-1
1.973259770E0,-1.024950027E0,3.103050232E0,-2.700000070E-2
1.975703460E0,-2.647950172E0,6.574950218E0,-5.920500159E-1
1.978147078E0,-3.103050232E0,6.985950470E0,-4.012950420E0
1.980590539E0,-3.961950302E0,9.000000000E0,-2.629050016E0
1.983034152E0,-4.654050350E0,1.022595024E1,-7.950000167E-1
1.985477616E0,-2.358000040E0,8.866050720E0,-7.996950150E0
1.987921229E0,-6.250500083E-1,8.931000710E0,-5.493000031E0
1.990364693E0,-1.390950084E0,9.061950684E0,-2.008949995E0
1.992808306E0,-3.658050060E0,1.232295036E1,2.685000181E0
1.995251999E0,-5.269950390E0,1.533795071E1,-2.079495049E1
1.997695390E0,-5.854050159E0,1.045605087E1,-3.295050144E0
2.000139081E0,-3.895050287E0,1.248405075E1,-8.998050690E0
2.002582544E0,-3.487950087E0,1.314195061E1,-1.095900059E1
2.005026157E0,-2.704950094E0,8.890050888E0,-6.010050297E0
2.007469621E0,-1.864950061E0,7.936950207E0,-1.058595085E1
2.009913234E0,-1.740000129E0,8.181000710E0,-6.870000362E0
2.012356698E0,-1.441050053E0,6.634050369E0,-5.197950363E0
2.014800311E0,-2.812950134E0,6.474000454E0,-7.380000114E0
2.017244004E0,-3.426000118E0,6.133950233E0,-4.594950199E0
2.019687371E0,-3.144000053E0,6.796950340E0,-4.834950447E0
2.022131062E0,-3.721050262E0,5.907000065E0,-2.221950054E0
2.024574525E0,-4.350000381E0,6.472050190E0,-4.831950188E0
2.027018139E0,-3.756000280E0,6.388050079E0,-1.168950081E0
2.029461602E0,-3.301950216E0,7.153950214E0,-2.586000204E0
2.031905215E0,-3.883050203E0,7.225950241E0,-1.939500123E-1
2.034348679E0,-4.614000320E0,8.500050545E0,-3.451050282E0
2.036792292E0,-5.704950333E0,9.289950371E0,-3.556050062E0
2.039235756E0,-5.466000080E0,8.137949944E0,-3.228000164E0
2.041679369E0,-5.377050400E0,7.783950329E0,-3.190050125E0
2.044123071E0,-4.015050411E0,9.131999969E0,-3.361950159E0
2.046566534E0,-4.707000256E0,8.938050270E0,-3.958050251E0
2.049010148E0,-4.723950386E0,7.717050552E0,-4.990050316E0
2.051453611E0,-3.450000048E0,7.384050369E0,-5.356050491E0
2.053897225E0,5.362050056E0,1.177500057E1,-5.218050480E0
2.056340684E0,3.925950289E0,1.764599991E1,-9.915000916E0
2.058784297E0,-1.750050068E0,1.826595116E1,-1.175895023E1
2.061227990E0,-7.435950279E0,1.560600090E1,-1.195800018E1
2.063671376E0,-8.923050880E0,1.211700058E1,-9.958050728E0
2.066115067E0,-6.472050190E0,9.871950150E0,-7.072950363E0
2.068558539E0,-2.820000172E0,5.902050495E0,-2.983950138E0
2.071002153E0,-3.373050213E0,3.922050238E0,-2.875950098E0
2.073445616E0,-4.414950371E0,2.356050014E0,-1.675950050E0
2.075889230E0,-5.289000034E0,2.938050032E0,-2.368050098E0
2.078332693E0,-5.992950439E0,3.675000191E0,-1.260000110E0
2.080776307E0,-4.237950325E0,4.425000191E0,-4.000500143E-1
2.083219770E0,-4.369050026E0,5.710050106E0,-3.372000217E0
2.085663460E0,-4.717050076E0,8.014050484E0,-3.031950235E0
2.088107078E0,-5.011050224E0,8.284049988E0,-5.007000446E0
2.090550539E0,-3.721050262E0,8.515950203E0,-4.071000099E0
2.092994153E0,-4.189949989E0,6.970050335E0,-4.095000267E0
2.095437616E0,-4.819950104E0,7.450950146E0,-3.922050238E0
2.097881230E0,-4.707000256E0,7.219050407E0,-4.933050156E0
2.100324693E0,-4.183050156E0,7.695000172E0,-4.234050274E0
2.102768307E0,-3.241950035E0,6.546000481E0,-3.505950212E0
2.105211770E0,-3.685050249E0,7.345950127E0,-4.072950363E0
2.107655384E0,-4.324050426E0,9.208050728E0,-4.200000286E0
2.110099076E0,-3.217950106E0,8.646000862E0,-4.368000031E0
2.112542539E0,-4.318950176E0,7.969950199E0,-4.935000420E0
2.114986153E0,-4.165950298E0,7.210950375E0,-4.753050327E0
2.117429607E0,-5.173950195E0,6.241950512E0,-4.710000038E0
2.119873221E0,-4.270950317E0,4.759950161E0,-3.003000259E0
2.122316684E0,-3.820950270E0,6.073950291E0,-3.637050152E0
2.124760298E0,-2.458950043E0,7.020000458E0,-3.834000111E0
2.127203990E0,-7.369500399E-1,6.064950466E0,-3.834000111E0
2.129647457E0,-2.281949997E0,5.136000156E0,-5.115000248E0
2.132091071E0,-5.250000477E0,5.128050327E0,-5.503050327E0
2.134534534E0,-4.666050434E0,5.542950153E0,-5.605950356E0
2.136978148E0,-2.962050200E0,7.030050278E0,-5.512050152E0
2.139421611E0,-9.840000272E-1,7.293000221E0,-4.357950211E0
2.141865225E0,-1.750050068E0,7.149000168E0,-4.993050098E0
2.144308688E0,-4.633050442E0,7.233000278E0,-4.449000359E0
2.146752302E0,-4.836000443E0,8.152050018E0,-1.996950150E0
2.149195765E0,-3.378000259E0,1.005105019E1,-2.422950029E0
2.151639375E0,-2.305950165E0,9.661050797E0,-1.055999994E0
2.154082838E0,-4.195050240E0,1.006305027E1,-1.734000087E0
2.156526528E0,-6.397050381E0,1.077195072E1,-1.189950109E0
2.158970146E0,-7.278000355E0,1.346805096E1,-5.490000248E-1
2.161413607E0,-8.344050407E0,1.861995125E1,5.089499950E-1
2.163857225E0,-7.141950130E0,2.045895004E1,2.860500216E-1
2.166300688E0,-3.072000027E0,2.428305054E1,-1.030050039E0
2.168744302E0,-3.036000252E0,1.516500092E1,-5.071950436E0
2.171187765E0,-6.916950226E0,8.155050278E0,-2.071950197E0
2.173631379E0,-4.432050228E0,6.615000248E0,-4.087950230E0
2.176074852E0,-3.505050182E0,7.671000481E0,-3.427050114E0
2.178518466E0,-4.678050041E0,7.824000359E0,-3.654000282E0
2.180962158E0,-3.964950085E0,7.297950268E0,-4.071000099E0
2.183405621E0,-4.345050335E0,6.994050503E0,-4.495050430E0
2.185849235E0,-4.614000320E0,7.405050278E0,-4.384050369E0
2.188292707E0,-4.539000034E0,7.222950459E0,-4.474950314E0
2.190736321E0,-4.579950333E0,7.674000263E0,-4.854000092E0
2.193179784E0,-5.040000439E0,7.410000324E0,-3.778950214E0
2.195623398E0,-6.043050289E0,7.675950527E0,-4.332000256E0
2.198067105E0,-4.068000317E0,7.132050514E0,-4.039950371E0
2.200510569E0,-4.486950397E0,7.161000252E0,-3.657000065E0
2.202954182E0,-4.711950302E0,7.566000462E0,-4.032000065E0
2.205397646E0,-5.032950401E0,7.372050285E0,-3.906000137E0
2.207841259E0,-5.737050056E0,7.944000244E0,-3.430950165E0
2.210284736E0,-4.960950375E0,7.759950161E0,-3.967950106E0
2.212728350E0,-4.204050064E0,7.846050262E0,-3.549000263E0
2.215171813E0,-4.450950146E0,7.872000217E0,-3.484050274E0
2.217615427E0,-4.408050060E0,7.810050488E0,-3.481950283E0
2.220058905E0,-4.393050194E0,7.887000561E0,-3.319050074E0
2.222502519E0,-4.405050278E0,7.756950378E0,-3.307050228E0
2.224945982E0,-4.084050179E0,7.710000515E0,-3.357000113E0
2.227389673E0,-4.234950066E0,7.615950584E0,-3.642000198E0
2.229833290E0,-4.477050304E0,7.723950386E0,-3.525000095E0
2.232276736E0,-4.563000202E0,7.824000359E0,-3.697050095E0
2.234720350E0,-4.599000454E0,7.827000141E0,-3.903000116E0
2.237163813E0,-4.558950424E0,7.638000488E0,-4.092000008E0
2.239607427E0,-4.672950268E0,7.437000275E0,-4.356000423E0
2.242050890E0,-4.810050011E0,7.362000465E0,-4.092000008E0
2.244494504E0,-4.638000011E0,7.425000191E0,-3.850050211E0
2.246937967E0,-4.731000423E0,7.585050583E0,-3.712050200E0
2.249381581E0,-4.795950413E0,7.482000351E0,-3.919950247E0
2.251825273E0,-4.744950294E0,7.353000164E0,-4.048950195E0
2.254268737E0,-4.599000454E0,7.372050285E0,-3.889050245E0
2.256712350E0,-4.162950039E0,7.486950397E0,-4.116000175E0
2.259155813E0,-4.149000168E0,7.390950203E0,-4.759950161E0
2.261599427E0,-5.209950447E0,7.378950119E0,-6.466950417E0
2.264042890E0,-5.698050499E0,7.602000237E0,-5.890050411E0
2.266486504E0,-5.029950142E0,7.669050217E0,-6.142050266E0
2.268929948E0,-4.233000278E0,7.594950199E0,-6.616050243E0
2.271373639E0,-4.305000305E0,7.477050304E0,-7.186050415E0
2.273817256E0,-4.072050095E0,7.453050137E0,-7.036950111E0
2.276260718E0,-3.178950071E0,6.979050159E0,-6.681000233E0
2.278704331E0,-2.337000132E0,6.433050156E0,-5.811000347E0
2.281147800E0,-1.683000088E0,6.570000172E0,-4.380000114E0
2.283591413E0,-1.936950088E0,8.029950142E0,-2.737050056E0
2.286034876E0,-5.077950478E0,7.273950577E0,2.127000093E0
2.288478490E0,-5.653050423E0,7.669050217E0,6.975000381E0
2.290922182E0,-3.706050158E0,8.466000557E0,3.307050228E0
2.293365583E0,-4.510950089E0,9.040950775E0,-1.459050059E0
2.295809273E0,-7.041000366E0,9.517050743E0,-3.919950247E0
2.298252737E0,-5.302950382E0,8.667000771E0,-3.481950283E0
2.300696350E0,-3.925950289E0,8.641050339E0,-1.942050099E0
2.303139814E0,-4.458000183E0,8.539950371E0,-2.152950048E0
2.305583422E0,-4.045950413E0,7.864950180E0,-2.323050022E0
2.308026886E0,-4.270950317E0,7.996950150E0,-2.470950127E0
2.310470499E0,-4.642050266E0,7.843950272E0,-3.067950249E0
2.312914191E0,-4.245000362E0,7.611000538E0,-3.202050209E0
2.315357578E0,-3.826050282E0,7.402950287E0,-3.522000074E0
2.317801264E0,-4.471950054E0,7.731000423E0,-3.592050076E0
2.320244651E0,-4.539000034E0,8.004000664E0,-3.277950048E0
2.322688341E0,-4.483950138E0,7.891050339E0,-3.084000111E0
2.325131805E0,-4.381050110E0,7.714050293E0,-3.052950144E0
2.327575418E0,-4.390950203E0,7.710000515E0,-3.118050098E0
2.330018882E0,-4.615950108E0,7.884000301E0,-3.112950087E0
2.332462495E0,-4.374000072E0,7.882050514E0,-2.917050123E0
2.334905959E0,-4.234950066E0,7.777050495E0,-3.040950060E0
2.337349572E0,-4.678050041E0,7.870050430E0,-2.895000219E0
2.339793054E0,-4.828950405E0,8.049000740E0,-2.526000023E0
2.342236745E0,-4.213950157E0,7.872000217E0,-3.445950270E0
2.344680362E0,-4.414950371E0,7.420050144E0,-3.846000195E0
2.347123824E0,-4.422000408E0,7.804950237E0,-2.775000095E0
2.349567437E0,-4.470000267E0,7.903050423E0,-3.300000191E0
2.352010896E0,-4.693050385E0,7.827000141E0,-3.690000057E0
2.354454509E0,-4.764000416E0,7.639950275E0,-4.590000153E0
2.356897973E0,-4.807950020E0,7.807950497E0,-4.554000378E0
2.359341586E0,-4.396049976E0,7.836000443E0,-4.348950386E0
2.361785049E0,-4.630050182E0,7.870050430E0,-4.231050014E0
2.364228653E0,-4.705049992E0,7.816950321E0,-4.189949989E0
2.366672345E0,-4.633050442E0,7.864950180E0,-4.011000156E0
2.369115809E0,-4.633050442E0,7.864950180E0,-3.975000143E0
2.371559422E0,-4.786050320E0,7.996950150E0,-3.786000252E0
2.374002886E0,-4.791000366E0,8.061000824E0,-3.963000298E0
2.376446499E0,-5.241000175E0,8.313000679E0,-3.630000114E0
2.378889963E0,-5.100000381E0,8.173950195E0,-3.460050106E0
2.381333576E0,-4.981950283E0,8.004000664E0,-4.380000114E0
2.383777268E0,-5.205000401E0,7.996950150E0,-5.814000130E0
2.386220655E0,-5.278950214E0,7.918050289E0,-8.315999985E0
2.388664350E0,-3.286950111E0,7.365000248E0,-4.027950287E0
2.391107737E0,-3.097950220E0,7.171050549E0,-2.560050011E0
2.393551427E0,-3.913950205E0,7.573050499E0,-2.188950062E0
2.395994891E0,-4.627950191E0,8.011050224E0,-3.087000132E0
2.398438504E0,-4.776000023E0,7.966050148E0,-4.023000240E0
2.400881968E0,-4.690050125E0,8.097000122E0,-3.430950165E0
2.403325581E0,-4.732950211E0,8.173950195E0,-2.644050121E0
2.405769045E0,-4.887000084E0,8.100000381E0,-1.954050064E0
2.408212658E0,-4.954050064E0,8.097000122E0,-1.939950109E0
2.410656122E0,-4.942050457E0,8.032950401E0,-2.068950176E0
2.413099721E0,-5.047050476E0,7.678050518E0,-2.413950205E0
2.415543184E0,-6.666000366E0,8.365950584E0,-2.758950233E0
2.417986798E0,-6.709050179E0,8.734050751E0,-1.831950068E0
2.420430261E0,-4.840950012E0,8.140049934E0,-2.076000214E0
2.422873952E0,-3.567000151E0,6.421050072E0,-2.719950199E0
2.425317583E0,-3.217950106E0,5.464050293E0,-3.526950121E0
2.427761045E0,-3.687000275E0,5.907000065E0,-4.717050076E0
2.430204658E0,-4.480050087E0,6.574950218E0,-6.016950130E0
2.432648122E0,-4.447950363E0,7.072950363E0,-6.730950356E0
2.435091735E0,-4.333050251E0,7.099050522E0,-6.843000412E0
2.437535204E0,-4.312050343E0,6.840000153E0,-6.991950512E0
2.439978894E0,-4.420050144E0,6.936000347E0,-6.043950081E0
2.442422511E0,-4.717050076E0,7.543950558E0,-5.064000130E0
2.444865973E0,-5.428050041E0,7.710000515E0,-4.708050251E0
2.447309586E0,-5.617050171E0,7.750050545E0,-5.344950199E0
2.449753040E0,-5.277000427E0,7.695000172E0,-5.323050022E0
2.452196653E0,-4.879050255E0,7.645050526E0,-4.933050156E0
2.454640117E0,-4.195050240E0,7.582950592E0,-3.721050262E0
2.457083730E0,-3.780000210E0,7.264050484E0,-2.833050251E0
2.459527208E0,-3.261000156E0,7.099050522E0,-1.681050062E0
2.461970898E0,-2.920950174E0,7.156050205E0,-1.168950081E0
2.464414515E0,-3.154950142E0,7.225950241E0,-1.189950109E0
2.466857977E0,-3.862050295E0,7.563000202E0,-1.200000048E0
2.469301590E0,-4.690050125E0,8.171999931E0,-2.329950094E0
2.471745050E0,-4.888950348E0,8.284049988E0,-3.691950083E0
2.474188663E0,-4.458000183E0,8.088000298E0,-4.012950420E0
2.476632127E0,-4.338000298E0,8.032950401E0,-3.349950075E0
2.479075740E0,-4.518000126E0,8.164050102E0,-2.818950176E0
2.481519204E0,-4.565999985E0,8.133000374E0,-3.022050142E0
2.483962802E0,-4.441050053E0,7.939050198E0,-3.669000149E0
2.486406266E0,-4.216050148E0,7.683000565E0,-3.973050117E0
2.488849879E0,-4.374000072E0,7.555950165E0,-3.738000154E0
2.491293342E0,-4.317000389E0,7.812000275E0,-3.501000166E0
2.493737033E0,-4.374000072E0,7.839000225E0,-3.606000185E0
2.496180650E0,-4.650000095E0,7.852950573E0,-3.661050081E0
2.498624112E0,-4.743000031E0,7.908000469E0,-3.520050049E0
2.501067725E0,-4.774050236E0,8.041950226E0,-3.154050112E0
2.503511189E0,-4.650000095E0,7.918050289E0,-3.228000164E0
2.505954802E0,-4.756950378E0,7.846050262E0,-3.490950108E0
2.508398266E0,-4.888950348E0,7.855950356E0,-3.529950142E0
2.510841879E0,-4.696950436E0,7.717050552E0,-3.429000139E0
2.513285343E0,-4.498950005E0,7.492050171E0,-3.505950212E0
2.515728956E0,-4.615950108E0,7.456050396E0,-3.891000271E0
2.518172419E0,-4.671000004E0,7.468050480E0,-3.970050097E0
2.520616110E0,-4.675950050E0,7.542000294E0,-3.733050108E0
2.523059727E0,-4.714050293E0,7.597050190E0,-3.610950232E0
2.525503189E0,-4.635000229E0,7.417050362E0,-3.703950167E0
2.527946802E0,-4.396049976E0,7.507950306E0,-3.769050121E0
2.530390266E0,-4.594050407E0,7.659000397E0,-3.625050068E0
2.532833869E0,-4.735949993E0,7.717050552E0,-3.420000076E0
2.535277333E0,-4.542000294E0,7.674000263E0,-3.369000196E0
2.537721023E0,-4.618050098E0,7.753050327E0,-3.427050114E0
2.540164640E0,-4.693050385E0,7.858050346E0,-3.429000139E0
2.542608102E0,-4.539000034E0,7.774050236E0,-3.421950102E0
2.545051735E0,-4.575000286E0,7.756950378E0,-3.373950243E0
2.547495199E0,-4.486950397E0,7.741050243E0,-3.454950094E0
2.549938812E0,-4.389000416E0,7.755000591E0,-3.550950050E0
2.552382276E0,-4.378950119E0,7.693050385E0,-3.621000290E0
2.554825889E0,-4.348050117E0,7.635000229E0,-3.661050081E0
2.557269353E0,-4.378950119E0,7.731000423E0,-3.577950239E0
2.559712966E0,-4.422000408E0,7.800000191E0,-3.436050177E0
2.562156658E0,-4.411950111E0,7.807950497E0,-3.496050119E0
2.564600122E0,-4.410000324E0,7.810050488E0,-3.502950191E0
2.567043735E0,-4.462950230E0,7.848000526E0,-3.415050268E0
2.569487184E0,-4.444050312E0,7.899000168E0,-3.333000183E0
2.571930797E0,-4.438950062E0,7.875000477E0,-3.373950243E0
2.574374261E0,-4.470000267E0,7.860000610E0,-3.448050261E0
2.576817874E0,-4.518000126E0,7.840950489E0,-3.469950199E0
2.579261324E0,-4.429050446E0,7.792950153E0,-3.453000069E0
2.581704937E0,-4.365000248E0,7.719000340E0,-3.582000256E0
2.584148629E0,-4.489050388E0,7.693050385E0,-3.669000149E0
2.586592016E0,-4.515000343E0,7.687950134E0,-3.622950077E0
2.589035706E0,-4.803000450E0,7.807950497E0,-2.775000095E0
2.591479170E0,-5.365050316E0,8.092950821E0,-1.329000115E0
2.593922783E0,-6.366000175E0,8.497050285E0,6.160500050E-1
2.596366247E0,-5.470950127E0,8.842050552E0,-1.510950089E0
2.598809860E0,-4.342950344E0,8.779950142E0,-4.672049999E0
2.601253324E0,-4.707000256E0,6.778050423E0,-6.562950134E0
2.603696937E0,-3.625050068E0,6.400050163E0,-5.907000065E0
2.606140401E0,-2.614050150E0,7.314000130E0,-4.530000210E0
2.608584014E0,-3.559950113E0,7.125000477E0,-3.967950106E0
2.611027478E0,-4.804950237E0,7.635000229E0,-4.200000286E0
2.613471100E0,-4.671000004E0,7.843950272E0,-4.143000126E0
2.615914564E0,-4.366950035E0,7.528050423E0,-3.312000275E0
2.618358177E0,-4.474950314E0,7.639950275E0,-3.364050150E0
2.620801869E0,-4.750050068E0,7.735950470E0,-3.664050102E0
2.623245333E0,-4.630050182E0,7.771950245E0,-3.666000128E0
2.625688941E0,-4.361999989E0,7.735950470E0,-3.520050049E0
2.628132405E0,-4.384050369E0,7.690050602E0,-3.384000063E0
2.630576018E0,-4.672950268E0,7.774050236E0,-3.502950191E0
2.633019482E0,-4.732950211E0,7.846050262E0,-3.454950094E0
2.635463095E0,-4.675950050E0,7.894050598E0,-3.309000254E0
2.637906554E0,-4.699950218E0,7.942050457E0,-3.349950075E0
2.640350244E0,-4.711950302E0,7.896000385E0,-3.337950230E0
2.642793861E0,-4.561050415E0,7.759950161E0,-3.385950089E0
2.645237323E0,-4.546950340E0,7.750050545E0,-3.393000126E0
2.647680936E0,-4.650000095E0,7.831950188E0,-3.400050163E0
2.650124386E0,-4.542000294E0,7.771950245E0,-3.360000134E0
2.652567999E0,-4.374000072E0,7.638000488E0,-2.955000162E0
2.655011463E0,-4.563000202E0,7.723950386E0,-2.905050039E0
2.657455076E0,-4.815000057E0,7.843950272E0,-3.307050228E0
2.659898540E0,-4.848000050E0,7.987050533E0,-3.810000181E0
2.662342230E0,-4.705049992E0,7.894050598E0,-4.011000156E0
2.664785847E0,-4.683000088E0,7.800000191E0,-3.795000076E0
2.667229309E0,-4.690050125E0,7.851000309E0,-3.343050241E0
2.669672922E0,-4.840950012E0,7.848000526E0,-2.893050194E0
2.672116391E0,-4.816950321E0,7.774050236E0,-2.695950031E0
2.674560004E0,-4.693050385E0,7.702050209E0,-3.070050240E0
2.677003468E0,-4.474950314E0,7.591950417E0,-3.795000076E0
2.679447081E0,-4.180050373E0,7.425000191E0,-4.756050110E0
2.681890545E0,-3.898050070E0,7.293000221E0,-5.673000336E0
2.684334177E0,-3.850050211E0,7.293000221E0,-5.968950272E0
2.686777641E0,-4.290000439E0,7.384050369E0,-4.777050018E0
2.689221331E0,-4.776000023E0,7.510950565E0,-3.757050276E0
2.691664718E0,-4.717050076E0,7.555950165E0,-3.633000135E0
2.694108408E0,-4.269000053E0,7.422000408E0,-3.568050146E0
2.696551795E0,-4.044000149E0,7.410000324E0,-3.568050146E0
2.698995485E0,-4.398000240E0,7.549050331E0,-3.652050257E0
2.701439100E0,-4.491000175E0,7.554000378E0,-3.802950144E0
2.703882564E0,-4.173000336E0,7.449000359E0,-4.272000313E0
2.706326177E0,-3.840000153E0,7.269000530E0,-4.720050335E0
2.708769646E0,-3.780000210E0,7.135050297E0,-5.032950401E0
2.711213259E0,-3.622050285E0,7.042050362E0,-5.311050415E0
2.713656723E0,-2.787000179E0,6.874050140E0,-6.283050060E0
2.716100413E0,-2.353049994E0,6.699000359E0,-7.504050255E0
2.718543800E0,-2.643000126E0,6.876000404E0,-8.232000351E0
2.720987480E0,-3.748950243E0,7.432050228E0,-7.618950367E0
2.723431095E0,-4.354950428E0,7.305000305E0,-7.459050179E0
2.725874559E0,-3.373050213E0,6.972000122E0,-7.363050461E0
2.728318172E0,-2.566050053E0,6.760950089E0,-6.178050518E0
2.730761636E0,-2.634000063E0,6.727950096E0,-5.979000092E0
2.733205231E0,-3.490950108E0,7.201950550E0,-5.395050049E0
2.735648695E0,-4.774050236E0,7.843950272E0,-5.083950043E0
2.738092308E0,-5.305950165E0,8.065950394E0,-4.923000336E0
2.740535772E0,-4.933950424E0,8.005949974E0,-5.518950462E0
2.742979385E0,-3.912000179E0,7.618950367E0,-5.164950371E0
2.745423090E0,-3.340050220E0,7.221000195E0,-5.112000465E0
2.747866554E0,-3.330000162E0,7.281000137E0,-4.339050293E0
2.750310167E0,-3.595950127E0,7.434000492E0,-5.437950134E0
2.752753631E0,-3.867000103E0,7.747950554E0,-4.657050133E0
2.755197244E0,-5.152050018E0,7.924950600E0,-3.829050064E0
2.757640708E0,-6.036000252E0,8.470950127E0,-4.309950352E0
2.760084321E0,-6.120000362E0,9.156000137E0,-2.911950111E0
2.762527785E0,-8.209950447E0,9.900000572E0,-1.084950089E0
2.764971398E0,-1.011600018E1,8.926050186E0,1.477950096E0
2.767415090E0,-7.189950466E0,7.060950279E0,2.493000031E0
2.769858568E0,-5.344050407E0,7.570950508E0,5.991000175E0
2.772302181E0,-5.812950134E0,7.140000343E0,5.650950432E0
2.774745645E0,-6.976950169E0,7.408050537E0,3.202050209E0
2.777189258E0,-6.835950375E0,7.812000275E0,2.608050108E0
2.779632708E0,-5.803950310E0,7.671000481E0,7.530000210E-1
2.782076321E0,-4.858050346E0,7.812000275E0,-7.759500146E-1
2.784519785E0,-4.603950024E0,7.992000580E0,-1.369950056E0
2.786963398E0,-4.887000084E0,8.107049942E0,-1.099050045E0
2.789407090E0,-5.212050438E0,7.948950291E0,-1.036949992E0
2.791850554E0,-6.333000183E0,9.782999992E0,-2.088000059E0
2.794294167E0,-2.125950098E0,8.907000542E0,-2.620050192E0
2.796737631E0,-2.404050112E0,8.076000214E0,-3.217950106E0
2.799181244E0,-4.225950241E0,8.032950401E0,-4.492050171E0
2.801624708E0,-5.065950394E0,8.293950081E0,-3.930000305E0
2.804068311E0,-3.364050150E0,8.257950783E0,-4.096950054E0
2.806511775E0,-3.160050154E0,7.563000202E0,-4.432050228E0
2.808955388E0,-4.752000332E0,7.563000202E0,-4.162050247E0
2.811398852E0,-4.675950050E0,8.104949951E0,-4.822950363E0
2.813842465E0,-3.637050152E0,7.669050217E0,-4.413000107E0
2.816285929E0,-4.705049992E0,7.645050526E0,-3.937050104E0
2.818729542E0,-5.101950169E0,7.783950329E0,-3.918000221E0
2.821173006E0,-5.149950027E0,7.738050461E0,-3.568050146E0
2.823616696E0,-4.827000141E0,7.453050137E0,-3.499050140E0
2.826060083E0,-5.013000011E0,7.554000378E0,-3.558000088E0
2.828503797E0,-5.032950401E0,7.768950462E0,-3.757050276E0
2.830947412E0,-4.626000404E0,7.261950493E0,-3.421950102E0
2.833390876E0,-4.840950012E0,7.314000130E0,-3.096000195E0
2.835834489E0,-4.477050304E0,7.087050438E0,-3.084000111E0
2.838277953E0,-4.683000088E0,7.185000420E0,-3.060000181E0
2.840721571E0,-5.061000347E0,7.969950199E0,-3.688050270E0
2.843165035E0,-3.883050203E0,8.023050308E0,-3.618000269E0
2.845608648E0,-4.270950317E0,8.014050484E0,-3.532050133E0
2.848052112E0,-4.810050011E0,7.980000496E0,-3.463050127E0
2.850495725E0,-4.696950436E0,8.233950615E0,-3.084000111E0
2.852939194E0,-4.587000370E0,8.296050072E0,-3.511050224E0
2.855382884E0,-4.422000408E0,7.951050282E0,-3.541950226E0
2.857826501E0,-4.132050037E0,7.666050434E0,-3.253950119E0
2.860269963E0,-4.642050266E0,7.551000595E0,-3.228000164E0
2.862713576E0,-5.065950394E0,7.687950134E0,-3.360000134E0
2.865157049E0,-4.453050137E0,7.540050507E0,-3.463050127E0
2.867600662E0,-4.374000072E0,7.530000210E0,-3.625050068E0
2.870044126E0,-4.627950191E0,7.482000351E0,-3.685050249E0
2.872487739E0,-4.708950043E0,7.401000500E0,-3.598950148E0
2.874931203E0,-4.429050446E0,7.495950222E0,-3.657000065E0
2.877374879E0,-4.396049976E0,7.603950500E0,-3.721050262E0
2.879818496E0,-4.518000126E0,7.695000172E0,-3.594000101E0
2.882261958E0,-4.618050098E0,7.743000507E0,-3.582000256E0
2.884705571E0,-4.602000237E0,7.744950294E0,-3.499050140E0
2.887149035E0,-4.494000435E0,7.756950378E0,-3.295050144E0
2.889592648E0,-4.731000423E0,7.839000225E0,-3.268950224E0
2.892036112E0,-4.771950245E0,7.834050179E0,-3.181950092E0
2.894479725E0,-4.530000210E0,7.645050526E0,-2.965050220E0
2.896923189E0,-4.764000416E0,7.698000431E0,-2.886000156E0
2.899366874E0,-4.875000000E0,7.732950211E0,-2.956950188E0
2.901810491E0,-4.671000004E0,7.819950581E0,-3.261000156E0
2.904253953E0,-4.328999996E0,7.807950497E0,-3.621000290E0
2.906697566E0,-4.491000175E0,7.815000534E0,-3.670950174E0
2.909141030E0,-4.743000031E0,7.816950321E0,-3.520050049E0
2.911584643E0,-4.597050190E0,7.851000309E0,-3.340950251E0
2.914028107E0,-4.522950172E0,7.843950272E0,-3.118050098E0
2.916471720E0,-4.621050358E0,7.875000477E0,-2.910000086E0
2.918915184E0,-4.639950275E0,7.899000168E0,-2.734950066E0
2.921358797E0,-4.594050407E0,7.872000217E0,-2.770950079E0
2.923802261E0,-4.518000126E0,7.864950180E0,-2.886000156E0
2.926245951E0,-4.486950397E0,7.864950180E0,-2.887950182E0
2.928689568E0,-4.494000435E0,7.848000526E0,-2.967000246E0
2.931133030E0,-4.531949997E0,7.900950432E0,-2.950050116E0
2.933576643E0,-4.470000267E0,7.831950188E0,-2.911950111E0
2.936020102E0,-4.405050278E0,7.858050346E0,-2.799000025E0
2.938463715E0,-4.507950306E0,7.948950291E0,-2.766000032E0
2.940907179E0,-4.615950108E0,7.992000580E0,-2.701050043E0
2.943350792E0,-4.561050415E0,7.987050533E0,-2.886000156E0
2.945794256E0,-4.565999985E0,7.947000504E0,-3.223050117E0
2.948237869E0,-5.068950176E0,8.064000130E0,-3.163050175E0
2.950681561E0,-4.735949993E0,8.047050476E0,-2.281949997E0
2.953124948E0,-4.377000332E0,7.720950603E0,-2.557950020E0
2.955568638E0,-4.491000175E0,7.836000443E0,-2.797050238E0
2.958012025E0,-4.474950314E0,7.767000198E0,-2.989050150E0
2.960455710E0,-4.546950340E0,7.570950508E0,-3.124950171E0
2.962899097E0,-4.731000423E0,7.627950191E0,-2.602950096E0
2.965342787E0,-4.426949978E0,7.930050373E0,2.491050005E0
2.967786251E0,-5.418000221E0,7.302000523E0,-3.496050119E0
2.970229864E0,-5.610000134E0,8.341950417E0,-3.802950144E0
2.972673333E0,-5.602050304E0,7.824000359E0,-3.046050072E0
2.975116946E0,-5.533050060E0,7.273950577E0,-3.039000034E0
2.977560410E0,-5.140050411E0,7.444050312E0,-2.770950079E0
2.980004023E0,-5.020950317E0,7.578000546E0,-2.529000044E0
2.982447487E0,-5.337000370E0,7.603950500E0,-2.494950056E0
2.984891105E0,-5.269950390E0,7.437000275E0,-2.779950142E0
2.987334568E0,-4.836000443E0,7.501050472E0,-3.048000097E0
2.989778259E0,-5.013000011E0,7.528050423E0,-4.449000359E0
2.992221876E0,-6.060000420E0,7.651950359E0,-6.469950199E0
2.994665338E0,-4.281000137E0,7.513050556E0,-5.716050148E0
2.997108941E0,-2.916000128E0,6.924000263E0,-5.677050114E0
2.999552405E0,-2.290950060E0,6.637050152E0,-5.052000046E0
3.001996018E0,-2.559000015E0,6.622950077E0,-5.458950043E0
3.004439482E0,-3.175050259E0,7.201950550E0,-5.553000450E0
3.006883095E0,-4.036950111E0,7.698000431E0,-5.809050083E0
3.009326577E0,-4.446000099E0,7.750050545E0,-5.869050503E0
3.011770268E0,-4.147050381E0,7.738050461E0,-5.581950188E0
3.014213654E0,-3.724950075E0,7.651950359E0,-4.914000034E0
3.016657345E0,-3.925950289E0,7.777050495E0,-3.795000076E0
3.019100707E0,-4.324050426E0,7.891050339E0,-3.036000252E0
3.021544398E0,-4.408050060E0,8.017950058E0,-2.826000214E0
3.023988013E0,-4.482000351E0,8.016000748E0,-2.910000086E0
3.026431477E0,-4.474950314E0,8.014050484E0,-3.084000111E0
3.028875090E0,-4.491000175E0,7.911000252E0,-3.496050119E0
3.031318569E0,-4.543950081E0,7.824000359E0,-3.721050262E0
3.033762182E0,-4.474950314E0,7.840950489E0,-3.676050186E0
3.036205645E0,-4.594050407E0,7.836000443E0,-3.343050241E0
3.038649259E0,-4.558950424E0,7.683000565E0,-3.295050144E0
3.041092722E0,-4.618050098E0,7.659000397E0,-3.348000050E0
3.043536336E0,-4.743000031E0,7.726050377E0,-3.657000065E0
3.045979799E0,-4.803000450E0,7.822050571E0,-3.700050116E0
3.048423490E0,-4.798050404E0,7.726050377E0,-3.646950245E0
3.050867107E0,-4.792950153E0,7.762050152E0,-3.393000126E0
3.053310569E0,-4.705049992E0,7.717050552E0,-3.307050228E0
3.055754167E0,-4.618050098E0,7.719000340E0,-3.292950153E0
3.058197631E0,-4.579950333E0,7.726050377E0,-3.517950058E0
3.060641244E0,-4.696950436E0,7.711950302E0,-3.585000277E0
3.063084707E0,-4.666050434E0,7.738050461E0,-3.522000074E0
3.065528321E0,-4.590000153E0,7.777050495E0,-3.357000113E0
3.067971780E0,-4.591950417E0,7.756950378E0,-3.301950216E0
3.070415394E0,-4.647000313E0,7.948950291E0,-3.214050055E0
3.072858857E0,-4.495950222E0,7.738050461E0,-3.420000076E0
3.075302548E0,-4.597050190E0,7.888950348E0,-3.276000261E0
3.077746165E0,-4.410000324E0,7.698000431E0,-3.609000206E0
3.080189641E0,-4.542000294E0,7.792950153E0,-3.369000196E0
3.082633254E0,-4.447950363E0,7.666050434E0,-3.610950232E0
3.085076718E0,-4.507950306E0,7.786050320E0,-3.372000217E0
3.087520331E0,-4.585050106E0,7.777050495E0,-3.417000055E0
3.089963794E0,-4.542000294E0,7.731000423E0,-3.337950230E0
3.092407408E0,-4.563000202E0,7.780950546E0,-3.429000139E0
3.094850871E0,-4.611000061E0,7.723950386E0,-3.466950178E0
3.097294485E0,-4.597050190E0,7.741050243E0,-3.448050261E0
3.099737948E0,-4.506000042E0,7.710000515E0,-3.496050119E0
3.102181639E0,-4.549050331E0,7.702050209E0,-3.453000069E0
3.104625261E0,-4.609050274E0,7.710000515E0,-3.477000237E0
3.107068723E0,-4.513050079E0,7.663950443E0,-3.502950191E0
3.109512336E0,-4.539000034E0,7.705050468E0,-3.570000172E0
3.111955800E0,-4.543950081E0,7.702050209E0,-3.550950050E0
3.114399413E0,-4.491000175E0,7.686000347E0,-3.565950155E0
3.116842890E0,-4.389000416E0,7.695000172E0,-3.538950205E0
3.119286504E0,-4.420050144E0,7.717050552E0,-3.511050224E0
3.121729967E0,-4.396049976E0,7.714050293E0,-3.502950191E0
3.124173581E0,-4.372050285E0,7.759950161E0,-3.451050282E0
3.126617044E0,-4.374000072E0,7.779000282E0,-3.477000237E0
3.129060735E0,-4.389000416E0,7.789050579E0,-3.441000223E0
3.131504352E0,-4.365000248E0,7.822050571E0,-3.420000076E0
3.133947814E0,-4.384050369E0,7.803000450E0,-3.415050268E0
3.136391427E0,-4.366950035E0,7.824000359E0,-3.400050163E0
3.138834905E0,-4.342950344E0,7.777050495E0,-3.439050198E0
3.141278519E0,-4.354950428E0,7.767000198E0,-3.465000153E0
3.143721982E0,-4.372050285E0,7.767000198E0,-3.505950212E0
3.146165596E0,-4.312050343E0,7.720950603E0,-3.487050056E0
3.148609059E0,-4.338000298E0,7.693050385E0,-3.499050140E0
3.151052658E0,-4.372050285E0,7.698000431E0,-3.487050056E0
3.153496121E0,-4.384050369E0,7.702050209E0,-3.478950262E0
3.155939812E0,-4.401000023E0,7.693050385E0,-3.481950283E0
3.158383429E0,-4.411950111E0,7.681050301E0,-3.514950275E0
3.160826891E0,-4.462950230E0,7.698000431E0,-3.511050224E0
3.163270514E0,-4.450950146E0,7.674000263E0,-3.513000250E0
3.165713977E0,-4.411950111E0,7.657050133E0,-3.501000166E0
3.168157591E0,-4.414950371E0,7.662000179E0,-3.502950191E0
3.170601054E0,-4.441050053E0,7.681050301E0,-3.508050203E0
3.173044668E0,-4.402950287E0,7.675950527E0,-3.520050049E0
3.175488131E0,-4.384050369E0,7.707000256E0,-3.561000109E0
3.177931745E0,-4.396049976E0,7.693050385E0,-3.556050062E0
3.180375208E0,-4.390950203E0,7.695000172E0,-3.544050217E0
3.182818822E0,-4.342950344E0,7.699950218E0,-3.538950205E0
3.185262280E0,-4.354950428E0,7.743000507E0,-3.526950121E0
3.187705894E0,-4.348050117E0,7.768950462E0,-3.534000158E0
3.190149357E0,-4.300050259E0,7.792950153E0,-3.490950108E0
3.192593047E0,-4.285950184E0,7.815000534E0,-3.478950262E0
3.195036665E0,-4.326000214E0,7.855950356E0,-3.448050261E0
3.197480126E0,-4.290000439E0,7.858050346E0,-3.430950165E0
3.199923740E0,-4.266000271E0,7.843950272E0,-3.453000069E0
3.202367203E0,-4.249950409E0,7.836000443E0,-3.472050190E0
3.204810817E0,-4.256999969E0,7.822050571E0,-3.454950094E0
3.207254280E0,-4.254000187E0,7.822050571E0,-3.508050203E0
3.209697894E0,-4.245000362E0,7.789050579E0,-3.520050049E0
3.212141357E0,-4.242000103E0,7.771950245E0,-3.534000158E0
3.214584971E0,-4.256999969E0,7.771950245E0,-3.549000263E0
3.217028663E0,-4.261950016E0,7.759950161E0,-3.541950226E0
3.219472106E0,-4.302000046E0,7.738050461E0,-3.549000263E0
3.221915720E0,-4.290000439E0,7.753050327E0,-3.568050146E0
3.224359183E0,-4.294950008E0,7.717050552E0,-3.604050159E0
3.226802797E0,-4.302000046E0,7.698000431E0,-3.610950232E0
3.229246260E0,-4.314000130E0,7.710000515E0,-3.622950077E0
3.231689898E0,-4.290000439E0,7.705050468E0,-3.622950077E0
3.234133361E0,-4.309950352E0,7.695000172E0,-3.616050243E0
3.236576975E0,-4.317000389E0,7.705050468E0,-3.618000269E0
3.239020438E0,-4.338000298E0,7.707000256E0,-3.610950232E0
3.241464052E0,-4.330950260E0,7.695000172E0,-3.630000114E0
3.243907515E0,-4.350000381E0,7.729050159E0,-3.654000282E0
3.246351129E0,-4.348050117E0,7.744950294E0,-3.666000128E0
3.248794592E0,-4.354950428E0,7.710000515E0,-3.645000219E0
3.251238205E0,-4.366950035E0,7.726050377E0,-3.642000198E0
3.253681669E0,-4.360050201E0,7.735950470E0,-3.654000282E0
3.256125359E0,-4.361999989E0,7.741050243E0,-3.642000198E0
3.258568746E0,-4.366950035E0,7.771950245E0,-3.633000135E0
3.261012436E0,-4.396049976E0,7.774050236E0,-3.606000185E0
3.263456052E0,-4.417050362E0,7.779000282E0,-3.604050159E0
3.265899515E0,-4.386000156E0,7.774050236E0,-3.577950239E0
3.268343120E0,-4.350000381E0,7.755000591E0,-3.556050062E0
3.270786583E0,-4.360050201E0,7.816950321E0,-3.556050062E0
3.273230197E0,-4.354950428E0,7.803000450E0,-3.561000109E0
3.275673660E0,-4.328999996E0,7.822050571E0,-3.568050146E0
3.278117350E0,-4.348050117E0,7.836000443E0,-3.532050133E0
3.280560752E0,-4.360050201E0,7.836000443E0,-3.517950058E0
3.283004442E0,-4.369050026E0,7.860000610E0,-3.499050140E0
3.285447829E0,-4.360050201E0,7.851000309E0,-3.484050274E0
3.287891519E0,-4.374000072E0,7.879950523E0,-3.469950199E0
3.290335140E0,-4.414950371E0,7.860000610E0,-3.439050198E0
3.292778603E0,-4.369050026E0,7.860000610E0,-3.454950094E0
3.295222217E0,-4.402950287E0,7.858050346E0,-3.454950094E0
3.297665680E0,-4.396049976E0,7.839000225E0,-3.501000166E0
3.300109293E0,-4.365000248E0,7.783950329E0,-3.460050106E0
3.302552762E0,-4.401000023E0,7.705050468E0,-3.448050261E0
3.304996375E0,-4.444050312E0,7.662000179E0,-3.430950165E0
3.307439839E0,-4.525050163E0,7.639950275E0,-3.469950199E0
3.309883452E0,-4.565999985E0,7.669050217E0,-3.561000109E0
3.312326916E0,-4.635000229E0,7.687950134E0,-3.625050068E0
3.314770514E0,-4.690050125E0,7.671000481E0,-3.606000185E0
3.317214207E0,-4.795950413E0,7.614000320E0,-3.513000250E0
3.319657593E0,-4.899000168E0,7.530000210E0,-3.556050062E0
3.322101284E0,-4.767000198E0,7.504050255E0,-3.628050089E0
3.324544670E0,-4.872000217E0,7.345950127E0,-3.691950083E0
3.326988346E0,-4.879050255E0,7.258950233E0,-3.745050192E0
3.329431733E0,-4.675950050E0,7.201950550E0,-3.838950157E0
3.331875423E0,-4.827000141E0,7.180050373E0,-3.867000103E0
3.334318887E0,-5.112000465E0,7.341000557E0,-4.128000259E0
3.336762500E0,-5.028000355E0,7.362000465E0,-3.987000227E0
3.339205983E0,-5.218950272E0,7.530000210E0,-3.822000265E0
3.341649596E0,-5.025000095E0,7.531950474E0,-3.481950283E0
3.344093060E0,-5.041950226E0,7.549050331E0,-3.496050119E0
3.346536673E0,-5.227050304E0,7.824000359E0,-3.537000179E0
3.348980366E0,-4.875000000E0,7.839000225E0,-3.678000212E0
3.351423771E0,-4.903050423E0,8.014050484E0,-3.691950083E0
3.353867461E0,-5.005950451E0,8.029950142E0,-3.513000250E0
3.356310848E0,-4.759950161E0,8.155050278E0,-3.453000069E0
3.358754538E0,-4.507950306E0,8.313000679E0,-3.702000141E0
3.361198002E0,-4.305000305E0,8.193000793E0,-3.781050205E0
3.363641610E0,-4.081950188E0,8.148000717E0,-3.862050295E0
3.366085074E0,-3.876000166E0,7.996950150E0,-3.886050224E0
3.368528687E0,-3.630000114E0,8.071050644E0,-3.994050264E0
3.370972151E0,-3.826050282E0,8.185950279E0,-3.961050272E0
3.373415764E0,-4.116000175E0,8.241000175E0,-3.727950096E0
3.375859228E0,-4.162950039E0,8.317950249E0,-3.430950165E0
3.378302841E0,-4.008000374E0,8.314949989E0,-3.304950237E0
3.380746305E0,-4.318950176E0,8.290950775E0,-2.799000025E0
3.383189918E0,-4.735949993E0,8.088000298E0,-2.584050179E0
3.385633382E0,-4.447950363E0,7.836000443E0,-2.470950127E0
3.388077053E0,-4.489050388E0,7.626000404E0,-2.806950092E0
3.390520440E0,-5.296050072E0,7.389000416E0,-3.618000269E0
3.392964130E0,-5.431950092E0,7.032000542E0,-3.477000237E0
3.395407516E0,-5.860950470E0,7.120950222E0,-4.223999977E0
3.397851207E0,-5.617050171E0,7.161000252E0,-3.742950201E0
3.400294851E0,-4.839000225E0,6.702000141E0,-3.091950178E0
3.402738315E0,-5.227050304E0,6.618000507E0,-3.027000189E0
3.405181928E0,-5.040000439E0,6.475950241E0,-3.436050177E0
3.407625392E0,-5.008950233E0,6.169950485E0,-4.066050053E0
3.410069005E0,-4.921950340E0,6.639000416E0,-4.336950302E0
3.412512474E0,-4.582050323E0,6.804000378E0,-4.332000256E0
3.414956164E0,-5.097000122E0,7.249950409E0,-3.906000137E0
3.417399551E0,-5.308050156E0,7.822050571E0,-3.337950230E0
3.419843241E0,-4.350000381E0,7.876950264E0,-2.842050076E0
3.422286856E0,-4.108050346E0,7.908000469E0,-2.797050238E0
3.424730291E0,-4.408050060E0,7.944000244E0,-3.010050058E0
3.427173904E0,-4.281000137E0,7.827000141E0,-3.429000139E0
3.429617368E0,-3.808950186E0,7.780950546E0,-3.810000181E0
3.432060981E0,-3.883050203E0,7.774050236E0,-3.927000284E0
3.434504445E0,-4.507950306E0,8.044950485E0,-3.774000168E0
3.436948058E0,-4.384050369E0,8.109000206E0,-3.405000210E0
3.439391522E0,-4.365000248E0,8.317950249E0,-3.010050058E0
3.441835135E0,-4.570950031E0,8.266950607E0,-2.706000090E0
3.444278599E0,-4.816950321E0,8.121000290E0,-2.758950233E0
3.446722212E0,-4.921950340E0,8.171999931E0,-3.256950140E0
3.449165694E0,-4.755000114E0,8.020950317E0,-3.478950262E0
3.451609308E0,-4.537050247E0,7.956000328E0,-3.609000206E0
3.454052771E0,-4.551000118E0,7.993950367E0,-3.472050190E0
3.456496385E0,-4.729050159E0,8.137949944E0,-3.204000235E0
3.458940072E0,-4.798050404E0,8.229000092E0,-3.007950068E0
3.461383536E0,-4.729050159E0,8.242950439E0,-3.087000132E0
3.463827149E0,-4.623000145E0,8.161950111E0,-3.427050114E0
3.466270613E0,-4.543950081E0,8.053950310E0,-3.592050076E0
3.468714226E0,-4.312050343E0,7.927050591E0,-3.730950117E0
3.471157680E0,-4.108050346E0,7.852950573E0,-3.760050297E0
3.473601293E0,-4.093950272E0,7.738050461E0,-3.781050205E0
3.476044756E0,-4.231050014E0,7.714050293E0,-3.702000141E0
3.478488370E0,-4.357050419E0,7.765050411E0,-3.754950285E0
3.480931833E0,-4.525050163E0,7.815000534E0,-3.771000147E0
3.483375519E0,-4.621050358E0,7.827000141E0,-3.618000269E0
3.485819136E0,-4.738050461E0,7.720950603E0,-3.436050177E0
3.488262598E0,-4.867050171E0,7.711950302E0,-3.396000147E0
3.490706211E0,-4.735949993E0,7.549050331E0,-3.448050261E0
3.493149675E0,-4.756950378E0,7.434000492E0,-3.562950134E0
3.495593268E0,-4.980000019E0,7.384050369E0,-3.750000238E0
3.498036732E0,-5.001000404E0,7.402950287E0,-3.771000147E0
3.500480345E0,-4.848000050E0,7.372050285E0,-3.700050116E0
3.502923808E0,-4.900950432E0,7.314000130E0,-3.594000101E0
3.505367422E0,-5.112000465E0,7.353000164E0,-3.577950239E0
3.507810885E0,-5.080050468E0,7.408050537E0,-3.666000128E0
3.510254499E0,-5.032950401E0,7.410000324E0,-3.922050238E0
3.512697962E0,-4.840950012E0,7.330950260E0,-3.616050243E0
3.515141576E0,-4.867050171E0,7.477050304E0,-3.874050140E0
3.517585039E0,-4.707000256E0,7.468050480E0,-3.577950239E0
3.520028668E0,-4.767000198E0,7.495950222E0,-3.573000193E0
3.522472360E0,-4.762050152E0,7.642050266E0,-3.556050062E0
3.524915747E0,-4.699950218E0,7.615950584E0,-3.544050217E0
3.527359437E0,-4.927050114E0,7.702050209E0,-3.606000185E0
3.529802900E0,-4.831050396E0,7.578000546E0,-3.565950155E0
3.532246514E0,-4.645050049E0,7.492050171E0,-3.442950249E0
3.534689977E0,-4.669050217E0,7.566000462E0,-3.850050211E0
3.537133591E0,-4.684950352E0,7.401000500E0,-3.618000269E0
3.539577054E0,-4.690050125E0,7.495950222E0,-3.838950157E0
3.542020668E0,-4.732950211E0,7.516050339E0,-3.819000244E0
3.544464111E0,-4.840950012E0,7.717050552E0,-3.774000168E0
3.546907725E0,-4.992000103E0,7.756950378E0,-3.574950218E0
3.549351188E0,-4.863000393E0,7.851000309E0,-3.268950224E0
3.551794802E0,-4.672950268E0,7.903050423E0,-3.166050196E0
3.554238265E0,-4.570950031E0,7.918050289E0,-3.160950184E0
3.556681878E0,-4.518000126E0,7.887000561E0,-3.063000202E0
3.559125342E0,-4.423950195E0,7.959000587E0,-3.331050158E0
3.561569032E0,-4.197000027E0,7.920000553E0,-3.244950056E0
3.564012650E0,-4.065000057E0,7.915050507E0,-3.304950237E0
3.566456111E0,-3.775950193E0,7.942050457E0,-3.259050131E0
3.568899725E0,-3.630000114E0,7.831950188E0,-3.271050215E0
3.571343188E0,-3.814050198E0,7.911000252E0,-3.361950159E0
3.573786802E0,-3.730050087E0,7.717050552E0,-3.427050114E0
3.576230265E0,-3.766050100E0,7.627950191E0,-3.526950121E0
3.578673879E0,-3.727950096E0,7.504050255E0,-3.541950226E0
3.581117342E0,-3.700950146E0,7.420050144E0,-3.718950272E0
3.583560955E0,-3.754050255E0,7.498950481E0,-3.727950096E0
3.586004419E0,-3.880950212E0,7.567950249E0,-3.630000114E0
3.588448032E0,-4.069950104E0,7.578000546E0,-3.384000063E0
3.590891496E0,-4.144050121E0,7.549050331E0,-3.271050215E0
3.593335085E0,-4.264050007E0,7.554000378E0,-3.514950275E0
3.595778549E0,-4.357050419E0,7.542000294E0,-3.670950174E0
3.598222162E0,-4.491000175E0,7.510950565E0,-3.724050283E0
3.600665626E0,-4.360050201E0,7.498950481E0,-3.609000206E0
3.603109316E0,-4.276050091E0,7.446000576E0,-3.393000126E0
3.605552929E0,-4.342950344E0,7.518000126E0,-3.228000164E0
3.607996390E0,-4.402950287E0,7.635000229E0,-3.340950251E0
3.610440003E0,-4.483950138E0,7.735950470E0,-3.429000139E0
3.612883467E0,-4.503000259E0,7.822050571E0,-3.463050127E0
3.615327080E0,-4.441050053E0,7.855950356E0,-3.388050079E0
3.617770559E0,-4.525050163E0,7.948950291E0,-3.384000063E0
3.620214172E0,-4.570950031E0,8.016000748E0,-3.355050087E0
3.622657636E0,-4.435950279E0,8.068950653E0,-3.433950186E0
3.625101249E0,-4.216050148E0,8.035050392E0,-3.484050274E0
3.627544713E0,-4.048950195E0,8.038050652E0,-3.441000223E0
3.629988340E0,-4.137000084E0,8.112000465E0,-3.508050203E0
3.632431804E0,-4.132050037E0,8.215050697E0,-3.520050049E0
3.634875417E0,-4.101000309E0,8.272050858E0,-3.582000256E0
3.637318881E0,-4.231050014E0,8.361000061E0,-3.549000263E0
3.639762489E0,-4.210950375E0,8.409000397E0,-3.424050093E0
3.642205953E0,-4.081950188E0,8.418000221E0,-3.489000082E0
3.644649643E0,-4.065000057E0,8.397000313E0,-3.466950178E0
3.647093260E0,-4.256999969E0,8.380050659E0,-3.466950178E0
3.649536722E0,-4.326000214E0,8.350950241E0,-3.513000250E0
3.651980335E0,-4.105950356E0,8.332050323E0,-3.517950058E0
3.654423799E0,-4.096050262E0,8.302950859E0,-3.526950121E0
3.656867412E0,-4.258950233E0,8.299050331E0,-3.465000153E0
3.659310876E0,-4.186950207E0,8.362950325E0,-3.442950249E0
3.661754489E0,-4.137000084E0,8.353950500E0,-3.508050203E0
3.664197953E0,-4.140000343E0,8.301000595E0,-3.628050089E0
3.666641566E0,-4.173000336E0,8.284049988E0,-3.807000160E0
3.669085030E0,-4.210950375E0,8.337000847E0,-3.822000265E0
3.671528643E0,-4.186950207E0,8.245950699E0,-3.721050262E0
3.673972102E0,-4.300050259E0,8.215050697E0,-3.652050257E0
3.676415715E0,-4.297950268E0,8.191050529E0,-3.630000114E0
3.678859178E0,-4.116000175E0,8.137949944E0,-3.601050138E0
3.681302792E0,-4.096050262E0,8.137949944E0,-3.586950064E0
3.683746484E0,-4.314000130E0,8.083050728E0,-3.439050198E0
3.686189963E0,-4.374000072E0,8.035050392E0,-3.333000183E0
3.688633347E0,-4.242000103E0,7.996950150E0,-3.453000069E0
3.691077038E0,-4.245000362E0,7.858050346E0,-3.475050211E0
3.693520653E0,-4.398000240E0,7.753050327E0,-3.532050133E0
3.695964117E0,-4.726050377E0,7.578000546E0,-3.613050222E0
3.698407730E0,-4.687950134E0,7.609050274E0,-3.484050274E0
3.700851194E0,-4.575000286E0,7.663950443E0,-3.762000084E0
3.703294807E0,-4.683000088E0,7.662000179E0,-3.529950142E0
3.705738270E0,-4.666050434E0,7.747950554E0,-3.301950216E0
3.708181884E0,-4.132050037E0,7.714050293E0,-3.120000124E0
3.710625561E0,-3.943050146E0,7.611000538E0,-3.124950171E0
3.713068948E0,-4.390950203E0,7.720950603E0,-3.439050198E0
3.715512638E0,-4.390950203E0,7.614000320E0,-3.726000071E0
3.717956025E0,-4.044000149E0,7.582950592E0,-3.736050129E0
3.720399486E0,-4.051050186E0,7.507950306E0,-3.598950148E0
3.722843096E0,-4.270950317E0,7.522950172E0,-3.570000172E0
3.725286788E0,-4.245000362E0,7.585050583E0,-3.621000290E0
3.727730175E0,-4.306950092E0,7.519950390E0,-3.694950104E0
3.730173865E0,-4.309950352E0,7.482000351E0,-3.831000090E0
3.732617328E0,-3.883050203E0,7.267050266E0,-3.865050077E0
3.735060927E0,-3.937950134E0,7.195050240E0,-3.810000181E0
3.737504390E0,-4.360050201E0,7.426950455E0,-3.879000187E0
3.739948004E0,-4.306950092E0,7.603950500E0,-3.877050161E0
3.742391467E0,-4.021950245E0,7.603950500E0,-3.585000277E0
3.744835081E0,-3.970050097E0,7.575000286E0,-3.574950218E0
3.747278559E0,-4.240050316E0,7.621050358E0,-3.511050224E0
3.749722173E0,-4.276050091E0,7.599000454E0,-3.661050081E0
3.752165636E0,-3.982050180E0,7.549050331E0,-3.963000298E0
3.754609327E0,-4.027050018E0,7.489050388E0,-4.032000065E0
3.757052944E0,-4.240050316E0,7.429050446E0,-3.930000305E0
3.759496405E0,-3.979050159E0,7.390950203E0,-4.048950195E0
3.761940019E0,-3.627000093E0,7.350000381E0,-3.994050264E0
3.764383482E0,-4.149000168E0,7.449000359E0,-4.006050110E0
3.766827096E0,-4.426949978E0,7.594950199E0,-4.118999958E0
3.769270559E0,-4.108050346E0,7.531950474E0,-4.099050045E0
3.771714192E0,-3.984000206E0,7.495950222E0,-3.946050167E0
3.774157655E0,-4.185000420E0,7.516050339E0,-3.889050245E0
3.776601269E0,-4.254000187E0,7.563000202E0,-3.901050091E0
3.779044732E0,-4.197000027E0,7.567950249E0,-4.023000240E0
3.781488346E0,-4.174950123E0,7.659000397E0,-4.143000126E0
3.783931809E0,-4.128000259E0,7.681050301E0,-4.108950138E0
3.786375423E0,-4.393050194E0,7.756950378E0,-3.910050154E0
3.788818886E0,-4.471950054E0,7.819950581E0,-3.817050219E0
3.791262499E0,-4.186950207E0,7.815000534E0,-3.882000208E0
3.793706192E0,-4.135050297E0,7.863000393E0,-4.036950111E0
3.796149669E0,-4.225950241E0,7.834050179E0,-4.027950287E0
3.798593283E0,-4.183050156E0,7.894050598E0,-4.027950287E0
3.801036746E0,-4.162950039E0,7.939050198E0,-3.937050104E0
3.803480360E0,-4.087049961E0,8.053950310E0,-3.886050224E0
3.805923823E0,-4.084050179E0,8.064000130E0,-3.867000103E0
3.808367437E0,-4.027050018E0,8.092950821E0,-3.882000208E0
3.810810900E0,-3.996000290E0,8.109000206E0,-3.889050245E0
3.813254513E0,-4.045950413E0,8.113950729E0,-3.925050259E0
3.815697977E0,-3.760950089E0,8.088000298E0,-3.906000137E0
3.818141590E0,-3.603000164E0,8.125950813E0,-3.751950264E0
3.820585044E0,-3.840000153E0,8.188050270E0,-3.592050076E0
3.823028657E0,-3.816000223E0,8.181000710E0,-3.538950205E0
3.825472121E0,-3.712950230E0,8.128950119E0,-3.592050076E0
3.827915734E0,-3.888000250E0,8.136000633E0,-3.580050230E0
3.830359198E0,-3.928950071E0,8.056950569E0,-3.661050081E0
3.832802797E0,-3.880950212E0,7.990050316E0,-3.513000250E0
3.835246261E0,-3.843000174E0,7.930050373E0,-3.477000237E0
3.837689874E0,-3.888000250E0,7.840950489E0,-3.352050066E0
3.840133338E0,-4.009950161E0,7.863000393E0,-3.501000166E0
3.842576951E0,-3.898050070E0,7.777050495E0,-3.384000063E0
3.845020444E0,-4.052999973E0,7.741050243E0,-3.460050106E0
3.847464057E0,-4.051050186E0,7.590000153E0,-3.502950191E0
3.849907749E0,-4.044000149E0,7.450950146E0,-3.762000084E0
3.852351213E0,-4.168050289E0,7.386000156E0,-3.814950228E0
3.854794826E0,-4.084050179E0,7.222950459E0,-3.906000137E0
3.857238300E0,-4.245000362E0,7.396050453E0,-4.027950287E0
3.859681913E0,-4.254000187E0,7.401000500E0,-3.988950253E0
3.862125377E0,-4.381050110E0,7.398000240E0,-4.104000092E0
3.864568990E0,-4.954050064E0,7.393050194E0,-3.937050104E0
3.867012454E0,-4.678050041E0,7.462950230E0,-3.834000111E0
3.869456067E0,-3.490950108E0,7.245000362E0,-3.790950298E0
3.871899531E0,-3.838050127E0,6.970050335E0,-3.160950184E0
3.874343144E0,-4.225950241E0,7.156050205E0,-3.301950216E0
3.876786608E0,-3.850050211E0,7.231050491E0,-3.919950247E0
3.879230221E0,-4.318950176E0,7.528050423E0,-4.047000408E0
3.881673685E0,-4.408050060E0,7.651950359E0,-4.164000034E0
3.884117298E0,-4.132050037E0,7.843950272E0,-4.453950405E0
3.886560761E0,-4.438950062E0,8.100000381E0,-4.039950371E0
3.889004375E0,-4.626000404E0,7.863000393E0,-3.352050066E0
3.891447838E0,-4.177950382E0,7.477050304E0,-2.674950123E0
3.893891529E0,-3.241950035E0,7.039050102E0,-3.178050041E0
3.896335146E0,-3.109950066E0,6.757050514E0,-3.630000114E0
3.898778608E0,-4.069950104E0,7.171050549E0,-4.297950268E0
3.901222221E0,-4.192049980E0,7.099050522E0,-4.126049995E0
3.903665700E0,-3.984000206E0,7.372050285E0,-3.901050091E0
3.906109313E0,-3.819000244E0,7.530000210E0,-3.919950247E0
3.908552776E0,-4.987050056E0,7.699950218E0,-3.787950277E0
3.910996390E0,-5.746050358E0,7.626000404E0,-3.778950214E0
3.913439853E0,-5.215050220E0,7.468050480E0,-3.372000217E0
3.915883529E0,-3.895050287E0,7.276050568E0,-3.487050056E0
3.918326915E0,-2.497050047E0,6.133950233E0,-3.160950184E0
3.920770606E0,-4.558950424E0,6.529050350E0,-4.143000126E0
3.923214221E0,-5.590050220E0,7.321950436E0,-4.128000259E0
3.925657685E0,-4.258950233E0,7.429050446E0,-4.336950302E0
3.928101313E0,-4.116000175E0,7.645050526E0,-4.131000042E0
3.930544777E0,-5.409000397E0,7.690050602E0,-3.187050104E0
3.932988390E0,-5.686050415E0,7.711950302E0,-2.838000059E0
3.935431853E0,-4.726050377E0,7.602000237E0,-2.383050203E0
3.937875467E0,-3.925950289E0,6.832950115E0,-2.742000103E0
3.940318930E0,-4.330950260E0,6.424050331E0,-3.774000168E0
3.942762544E0,-4.651950359E0,6.493050098E0,-4.186050415E0
3.945206007E0,-4.410000324E0,6.784950256E0,-4.665000439E0
3.947649621E0,-4.693050385E0,7.245000362E0,-4.699950218E0
3.950093084E0,-5.401050091E0,7.807950497E0,-3.598950148E0
3.952536698E0,-5.803950310E0,7.852950573E0,-2.905050039E0
3.954980161E0,-5.250000477E0,7.888950348E0,-2.304000139E0
3.957423775E0,-4.804950237E0,7.585050583E0,-2.320950031E0
3.959867238E0,-4.918050289E0,7.420050144E0,-2.914050102E0
3.962310852E0,-4.888950348E0,7.200000286E0,-3.570000172E0
3.964754300E0,-4.565999985E0,7.233000278E0,-4.276950359E0
3.967197913E0,-5.016000271E0,7.474950314E0,-4.657050133E0
3.969641377E0,-5.755950451E0,7.791000366E0,-4.056000233E0
3.972084990E0,-5.763000488E0,8.068950653E0,-3.337950230E0
3.974528454E0,-5.518950462E0,8.277000427E0,-2.368050098E0
3.976972154E0,-5.041950226E0,7.896000385E0,-1.978050113E0
3.979415541E0,-4.755000114E0,7.674000263E0,-1.561950088E0
3.981859231E0,-4.135050297E0,7.252050400E0,-2.179050207E0
3.984302847E0,-3.555000067E0,7.398000240E0,-2.482950211E0
3.986746310E0,-3.820950270E0,7.686000347E0,-3.007950068E0
3.989189914E0,-4.357050419E0,8.239050865E0,-3.421950102E0
3.991633377E0,-4.960950375E0,9.120000839E0,-3.001050234E0
3.994076990E0,-5.356050491E0,9.496050835E0,-2.206050158E0
3.996520454E0,-5.473050117E0,9.522000313E0,-1.714950085E0
3.998964052E0,-5.569050312E0,9.382950783E0,-1.818000078E0
4.001407516E0,-4.966050148E0,8.470950127E0,-2.304000139E0
4.003851129E0,-4.173000336E0,7.875000477E0,-3.115050077E0
4.006294593E0,-4.153950214E0,6.922050476E0,-3.649050236E0
4.008738206E0,-3.775950193E0,6.357000351E0,-4.143000126E0
4.011181666E0,-3.241950035E0,6.832950115E0,-4.240950108E0
4.013625279E0,-3.895050287E0,7.144050121E0,-4.269000053E0
4.016068743E0,-4.942050457E0,7.710000515E0,-2.917050123E0
4.018512356E0,-5.358000278E0,8.145000458E0,-2.224950075E0
4.020956048E0,-5.419950485E0,8.442000389E0,-1.873050094E0
4.023399435E0,-5.665050507E0,8.204999924E0,-1.779000044E0
4.025843125E0,-5.959050179E0,7.530000210E0,-2.206050158E0
4.028286512E0,-6.100050449E0,7.164000511E0,-2.242050171E0
4.030730202E0,-6.301950455E0,6.682050228E0,-3.091950178E0
4.033173666E0,-5.995050430E0,6.318000317E0,-3.151050091E0
4.035617250E0,-5.502000332E0,5.974050522E0,-3.964950085E0
4.038060714E0,-5.605050087E0,6.523950100E0,-3.544050217E0
4.040504327E0,-5.787000179E0,7.207050323E0,-3.666000128E0
4.042947791E0,-6.306000233E0,7.683000565E0,-2.851950169E0
4.045391404E0,-5.992950439E0,7.815000534E0,-2.869050026E0
4.047834852E0,-5.334000111E0,7.948950291E0,-2.488050222E0
4.050278465E0,-4.975050449E0,7.606950283E0,-3.594000101E0
4.052721929E0,-4.582050323E0,7.437000275E0,-3.372000217E0
4.055165542E0,-4.222949982E0,7.141950130E0,-3.712050200E0
4.057609006E0,-3.709050179E0,7.405050278E0,-3.175050259E0
4.060052716E0,-3.205950260E0,7.362000465E0,-3.175050259E0
4.062496102E0,-3.814050198E0,7.812000275E0,-2.710950136E0
4.064939793E0,-4.197000027E0,8.229000092E0,-2.787000179E0
4.067383408E0,-4.633050442E0,8.923050880E0,-2.092950106E0
4.069826872E0,-5.119050026E0,9.340050697E0,-2.136000156E0
4.072270470E0,-5.194950104E0,9.289950371E0,-1.351050019E0
4.074713934E0,-4.948950291E0,9.382950783E0,-1.435050011E0
4.077157547E0,-4.858050346E0,9.223050117E0,-1.389000058E0
4.079601011E0,-4.812000275E0,9.256050110E0,-1.878000140E0
4.082044624E0,-5.170950413E0,8.822999954E0,-2.614950180E0
4.084488093E0,-5.511000156E0,8.773050308E0,-3.148950100E0
4.086931706E0,-6.649050236E0,8.581050873E0,-3.240000248E0
4.089375169E0,-6.460050106E0,8.482950211E0,-2.943000078E0
4.091818783E0,-5.764950275E0,7.984950542E0,-2.227050066E0
4.094262246E0,-5.671950340E0,7.755000591E0,-2.004000187E0
4.096705845E0,-5.847000122E0,7.137000561E0,-2.617050171E0
4.099149308E0,-6.112050056E0,7.264050484E0,-3.652050257E0
4.101592922E0,-6.000000477E0,7.300050259E0,-4.759950161E0
4.104036385E0,-6.057000160E0,7.867950439E0,-4.672049999E0
4.106479999E0,-6.120000362E0,8.169000626E0,-4.327050209E0
4.108923462E0,-6.393000126E0,8.370000839E0,-2.871000051E0
4.111367076E0,-5.938050270E0,8.314949989E0,-1.918050051E0
4.113810539E0,-5.571000099E0,7.987050533E0,-2.136000156E0
4.116254153E0,-5.305950165E0,7.575000286E0,-2.340000153E0
4.118697845E0,-4.875000000E0,7.321950436E0,-3.241950035E0
4.121141308E0,-4.273950100E0,6.820950508E0,-3.501000166E0
4.123584922E0,-3.778050184E0,7.042050362E0,-3.964950085E0
4.126028385E0,-3.736950159E0,7.798050404E0,-3.405000210E0
4.128471999E0,-4.242000103E0,7.951050282E0,-2.317950010E0
4.130915462E0,-4.293000221E0,8.581050873E0,-1.071000099E0
4.133359067E0,-4.978050232E0,8.755949974E0,-1.411050081E0
4.135802530E0,-5.361000061E0,8.839950562E0,-1.389000058E0
4.138246144E0,-4.972950459E0,8.539950371E0,-2.128950119E0
4.140689607E0,-5.218950272E0,8.085000038E0,-2.002050161E0
4.143133221E0,-5.835000515E0,7.273950577E0,-2.457000017E0
4.145576669E0,-6.073950291E0,6.730050087E0,-2.185950041E0
4.148020282E0,-5.587950230E0,6.820950508E0,-2.763000250E0
4.150463746E0,-5.920950413E0,6.922050476E0,-3.283050060E0
4.152907359E0,-5.751000404E0,7.369950294E0,-2.701050043E0
4.155350823E0,-4.729050159E0,7.414950371E0,-2.806950092E0
4.157794431E0,-4.744950294E0,7.453050137E0,-2.047950029E0
4.160238124E0,-5.478000164E0,7.659000397E0,-2.488050222E0
4.162681587E0,-5.796000481E0,7.441050529E0,-3.204000235E0
4.165125201E0,-5.332050323E0,7.294950485E0,-3.991950274E0
4.167568664E0,-5.085000038E0,6.919050217E0,-4.392000198E0
4.170012263E0,-4.750050068E0,7.171050549E0,-4.035000324E0
4.172455727E0,-4.683000088E0,6.919050217E0,-4.099050045E0
4.174899340E0,-4.660950184E0,7.137000561E0,-3.397950172E0
4.177342804E0,-4.906050205E0,7.551000595E0,-3.877050161E0
4.179786417E0,-5.053950310E0,7.518000126E0,-3.192000151E0
4.182229881E0,-4.980000019E0,7.927050591E0,-2.962050200E0
4.184673494E0,-5.001000404E0,8.239050865E0,-2.494950056E0
4.187116958E0,-4.906050205E0,8.787000656E0,-2.078999996E0
4.189560571E0,-4.903050423E0,8.590950012E0,-2.004000187E0
4.192004035E0,-4.909950256E0,9.057000160E0,-1.618950129E0
4.194447648E0,-5.040000439E0,9.100950241E0,-2.188950062E0
4.196891112E0,-5.200050354E0,9.237000465E0,-1.624050021E0
4.199334725E0,-4.966050148E0,8.844000816E0,-1.810950041E0
4.201778189E0,-4.882050037E0,8.227050781E0,-1.825050116E0
4.204221802E0,-5.137950420E0,8.072999954E0,-1.798950076E0
4.206665266E0,-4.635000229E0,7.659000397E0,-3.022050142E0
4.209108879E0,-4.803000450E0,7.987050533E0,-3.289950132E0
4.211552343E0,-5.116050243E0,7.705050468E0,-4.291050434E0
4.213995956E0,-4.747950077E0,7.759950161E0,-3.525000095E0
4.216439419E0,-4.558950424E0,7.707000256E0,-2.926050186E0
4.218883033E0,-4.936950207E0,7.627950191E0,-1.779000044E0
4.221326496E0,-4.695000172E0,7.318950176E0,-2.143050194E0
4.223770110E0,-5.229000092E0,6.972000122E0,-2.620050192E0
4.226213802E0,-5.619000435E0,7.084950447E0,-3.430950165E0
4.228657189E0,-5.614050388E0,7.210950375E0,-4.756050110E0
4.231100879E0,-5.904000282E0,8.061000824E0,-4.297950268E0
4.233544343E0,-6.534000397E0,8.253000259E0,-3.952950239E0
4.235987956E0,-6.570000172E0,8.737050056E0,-2.155050039E0
4.238431420E0,-6.000000477E0,8.713050842E0,-1.839000106E0
4.240875033E0,-5.764950275E0,8.145000458E0,-1.831950068E0
4.243318496E0,-6.025950432E0,8.008950233E0,-2.412000179E0
4.245762110E0,-5.748000145E0,7.690050602E0,-3.297000170E0
4.248205802E0,-4.882050037E0,7.264050484E0,-3.511050224E0
4.250649189E0,-3.997950077E0,7.128000259E0,-3.811950207E0
4.253092874E0,-4.695000172E0,8.361000061E0,-3.046050072E0
4.255536261E0,-5.671950340E0,8.622000694E0,-2.434950113E0
4.257979951E0,-5.083050251E0,9.156000137E0,-1.260000110E0
4.260423415E0,-5.125950336E0,9.196050644E0,-7.399500608E-1
4.262867028E0,-5.598000050E0,9.181950569E0,-1.396050096E0
4.265310491E0,-5.631000042E0,8.140049934E0,-1.525950074E0
4.267754105E0,-5.623950481E0,7.405050278E0,-2.020950079E0
4.270197568E0,-5.611950397E0,7.510950565E0,-2.299050093E0
4.272641182E0,-5.088000298E0,6.955050468E0,-3.232950211E0
4.275084645E0,-5.203050137E0,6.898050308E0,-2.730000019E0
4.277528254E0,-5.511000156E0,7.663950443E0,-3.343050241E0
4.279971717E0,-5.242950439E0,7.494000435E0,-2.629050016E0
4.282415331E0,-5.061000347E0,7.939050198E0,-1.933050036E0
4.284858794E0,-5.635950089E0,7.779000282E0,-2.163000107E0
4.287302408E0,-5.389050484E0,7.597050190E0,-1.987950087E0
4.289745885E0,-4.792950153E0,7.020000458E0,-3.417000055E0
4.292189499E0,-4.666050434E0,7.057950497E0,-3.841050148E0
4.294632962E0,-5.305950165E0,7.276050568E0,-4.401000023E0
4.297076575E0,-5.173950195E0,7.312050343E0,-4.048950195E0
4.299520059E0,-5.265000343E0,7.477050304E0,-3.381000042E0
4.301963672E0,-5.470950127E0,7.438950539E0,-3.175050259E0
4.304407136E0,-5.784000397E0,7.449000359E0,-2.767950058E0
4.306850749E0,-6.304050446E0,7.276050568E0,-3.393000126E0
4.309294213E0,-6.424050331E0,7.348050117E0,-3.553950071E0
4.311737830E0,-5.952000141E0,7.456050396E0,-4.237950325E0
4.314181523E0,-5.253000259E0,7.065000534E0,-3.991950274E0
4.316624909E0,-5.368050098E0,7.627950191E0,-3.172950268E0
4.319068600E0,-5.944950104E0,8.041950226E0,-3.067950249E0
4.321511986E0,-5.731950283E0,8.686050415E0,-2.566950083E0
4.323955705E0,-6.016950130E0,8.842050552E0,-2.533950090E0
4.326399169E0,-5.073000431E0,8.521050453E0,-2.323050022E0
4.328842782E0,-5.329050064E0,8.761050224E0,-2.209950209E0
4.331286246E0,-4.149000168E0,8.506950378E0,-1.423050046E0
4.333729859E0,-3.232050180E0,8.184000015E0,-2.191050053E0
4.336173371E0,-4.044000149E0,7.603950500E0,-2.530950069E0
4.338616984E0,-3.916950226E0,7.860000610E0,-2.646000147E0
4.341060448E0,-2.667000055E0,8.038050652E0,-3.577950239E0
4.343504061E0,-3.426000118E0,7.714050293E0,-2.791950226E0
4.345947525E0,-4.513050079E0,7.924950600E0,-2.068950176E0
4.348391138E0,-3.507000208E0,7.900950432E0,-1.867950082E0
4.350834602E0,-3.325050116E0,7.807950497E0,-2.011950016E0
4.353278215E0,-4.318950176E0,7.390950203E0,-3.064950228E0
4.355721679E0,-4.012950420E0,7.659000397E0,-3.915000200E0
4.358165292E0,-3.958050251E0,7.197000504E0,-4.365000248E0
4.360608761E0,-4.812000275E0,7.674000263E0,-4.179000378E0
4.363052374E0,-6.061950207E0,7.318950176E0,-4.504050255E0
4.365495838E0,-6.454950333E0,7.486950397E0,-3.714000225E0
4.367939451E0,-6.196050167E0,6.823950291E0,-3.513000250E0
4.370382914E0,-5.467950344E0,6.931050301E0,-3.172950268E0
4.372826528E0,-5.626050472E0,6.430950165E0,-3.838950157E0
4.375270220E0,-6.534000397E0,6.843000412E0,-4.401000023E0
4.377713607E0,-6.235050201E0,6.496050358E0,-4.392000198E0
4.380157297E0,-5.193000317E0,6.900000095E0,-3.441000223E0
4.382600684E0,-5.422950268E0,7.681050301E0,-2.770950079E0
4.385044389E0,-5.715000153E0,8.542950630E0,-2.143050194E0
4.387487853E0,-5.691000462E0,9.352050781E0,-1.681050062E0
4.389931466E0,-5.119050026E0,9.321000099E0,-1.483050108E0
4.392374929E0,-4.846050262E0,9.285000801E0,-1.939950109E0
4.394818543E0,-4.245000362E0,9.205950737E0,-2.569950104E0
4.397262006E0,-3.397050142E0,9.052950859E0,-2.980950117E0
4.399705620E0,-2.835000038E0,9.037950516E0,-3.256950140E0
4.402149083E0,-2.583000183E0,8.305950165E0,-2.898000240E0
4.404592697E0,-2.916000128E0,8.899050713E0,-3.288000107E0
4.407036160E0,-2.971050024E0,8.490000725E0,-2.869050026E0
4.409479793E0,-2.193000078E0,8.715000153E0,-2.605050087E0
4.411923256E0,-2.212050200E0,8.491950035E0,-2.878050089E0
4.414366947E0,-3.487950087E0,8.341950417E0,-2.218050003E0
4.416810333E0,-4.996950150E0,8.113950729E0,-2.602950096E0
4.419253951E0,-4.357050419E0,7.486950397E0,-2.827950239E0
4.421697414E0,-5.272050381E0,6.972000122E0,-2.935950041E0
4.424141027E0,-6.670050144E0,7.180050373E0,-2.470950127E0
4.426584720E0,-6.739950180E0,6.472050190E0,-2.694000244E0
4.429028183E0,-7.342950344E0,6.922050476E0,-2.632050037E0
4.431471818E0,-7.065000534E0,6.928950310E0,-2.917050123E0
4.433915281E0,-6.270000458E0,7.201950550E0,-3.312000275E0
4.436358895E0,-6.156000137E0,7.326000214E0,-3.412050247E0
4.438802358E0,-6.643950462E0,7.456050396E0,-3.271050215E0
4.441245972E0,-6.871050358E0,7.410000324E0,-3.496050119E0
4.443689439E0,-6.069000244E0,6.985950470E0,-3.997050285E0
4.446133053E0,-6.103050232E0,6.804000378E0,-4.609050274E0
4.448576516E0,-6.000000477E0,6.804000378E0,-4.660050392E0
4.451020129E0,-4.708950043E0,6.783000469E0,-4.477950096E0
4.453463593E0,-3.330000162E0,6.493050098E0,-3.997050285E0
4.455907221E0,-2.835000038E0,6.502950191E0,-3.087000132E0
4.458350685E0,-3.163050175E0,6.903000355E0,-2.749050140E0
4.460794298E0,-3.744000196E0,7.618950367E0,-3.111000061E0
4.463237762E0,-3.376050234E0,7.887000561E0,-3.051000118E0
4.465681375E0,-3.234000206E0,8.353950500E0,-2.791950226E0
4.468124853E0,-3.973950148E0,8.980950356E0,-2.293950081E0
4.470568466E0,-4.441050053E0,9.079050064E0,-2.023950100E0
4.473011930E0,-4.510950089E0,9.366000175E0,-3.811950207E0
4.475455543E0,-5.458950043E0,8.926050186E0,-4.231050014E0
4.477899007E0,-7.321950436E0,7.803000450E0,-3.715950251E0
4.480342620E0,-7.132050514E0,7.257000446E0,-2.971950054E0
4.482786084E0,-4.969950199E0,6.771000385E0,-1.924950123E0
4.485229774E0,-2.920950174E0,6.601050377E0,-2.545950174E0
4.487673391E0,-3.655950069E0,7.333950520E0,-1.930050135E0
4.490116776E0,-5.215050220E0,7.528050423E0,-2.923950195E0
4.492560452E0,-6.475950241E0,8.920950890E0,-2.979000092E0
4.495003916E0,-5.871000290E0,1.041300011E1,-4.363049984E0
4.497447529E0,-5.071050167E0,1.065705013E1,-4.861050129E0
4.499890993E0,-5.539950371E0,1.010895061E1,-2.938050032E0
4.502334606E0,-4.417050362E0,9.169950485E0,-2.176950216E0
4.504778070E0,-2.111999989E0,8.418000221E0,-2.239050150E0
4.507221683E0,-1.930050135E0,6.631950378E0,-2.293950081E0
4.509665147E0,-2.904000044E0,6.022050381E0,-3.774000168E0
4.512108760E0,-2.665050030E0,5.914050102E0,-4.537950039E0
4.514552224E0,-1.518000126E0,7.000950336E0,-5.610000134E0
4.516995803E0,-1.276050091E0,6.475950241E0,-5.175000191E0
4.519439266E0,-1.186950088E0,6.583950520E0,-4.249950409E0
4.521882880E0,-3.205950260E0,7.549050331E0,-2.863950253E0
4.524326343E0,-6.133950233E0,9.028950691E0,-3.103050232E0
4.526769957E0,-7.506000519E0,8.962050438E0,-3.918000221E0
4.529213396E0,-7.192050457E0,8.521050453E0,-3.381000042E0
4.531657010E0,-7.650000572E0,7.872000217E0,-4.003950119E0
4.534100473E0,-7.498950481E0,7.168050289E0,-2.680050135E0
4.536544087E0,-6.445050240E0,5.746050358E0,-2.722950220E0
4.538987564E0,-4.891050339E0,5.659950256E0,-3.168000221E0
4.541431178E0,-4.590000153E0,5.488050461E0,-2.959950209E0
4.543874641E0,-5.590050220E0,6.903000355E0,-4.144950390E0
4.546318255E0,-4.864950180E0,7.567950249E0,-5.086050034E0
4.548761718E0,-3.658050060E0,7.992000580E0,-4.854000092E0
4.551205346E0,-4.312050343E0,8.551950455E0,-4.708050251E0
4.553649039E0,-5.454000473E0,8.779950142E0,-3.385950089E0
4.556092502E0,-4.477050304E0,8.737050056E0,-2.067000151E0
4.558536116E0,-2.598000050E0,7.765050411E0,-1.915950060E0
4.560979502E0,-6.649500132E-1,6.772950172E0,-2.031000137E0
4.563423193E0,-1.207050085E0,6.627000332E0,-1.837050080E0
4.565866656E0,-3.153000116E0,7.651950359E0,-2.541000128E0
4.568310270E0,-4.314000130E0,8.374950409E0,-3.679950237E0
4.570753733E0,-3.454950094E0,8.610000610E0,-3.930000305E0
4.573197347E0,-3.346950054E0,9.238950729E0,-4.249950409E0
4.575640795E0,-4.741050243E0,9.699000359E0,-3.538950205E0
4.578084408E0,-6.718050480E0,9.784950256E0,-3.309000254E0
4.580527872E0,-6.274950504E0,9.069000244E0,-2.802000046E0
4.582971485E0,-3.952950239E0,7.543950558E0,-2.922000170E0
4.585414949E0,-1.657050133E0,5.904000282E0,-3.313950062E0
4.587858562E0,-1.173000097E0,5.313000202E0,-4.150050163E0
4.590302026E0,-2.385000229E0,6.013950348E0,-4.669050217E0
4.592745639E0,-4.237950325E0,7.518000126E0,-5.131050110E0
4.595189103E0,-6.912000179E0,8.305950165E0,-5.281950474E0
4.597632716E0,-6.850050449E0,9.120000839E0,-5.293950081E0
4.600076176E0,-6.232050419E0,9.376049995E0,-3.585000277E0
4.602519789E0,-5.904000282E0,9.037950516E0,-2.332950115E0
4.604963481E0,-5.988000393E0,8.706000328E0,-1.119000077E0
4.607406945E0,-4.759950161E0,6.579000473E0,-2.067000151E0
4.609850558E0,-3.973950148E0,6.502950191E0,-2.898000240E0
4.612294017E0,-3.328050137E0,5.844000340E0,-2.923950195E0
4.614737630E0,-3.891000271E0,5.719950199E0,-1.878000140E0
4.617181094E0,-4.720950127E0,6.880950451E0,-3.855000257E0
4.619624707E0,-5.173950195E0,7.342950344E0,-6.502950191E0
4.622068171E0,-4.573050022E0,7.156050205E0,-7.240950108E0
4.624511784E0,-2.944950104E0,6.619950294E0,-4.801050186E0
4.626955248E0,-2.020950079E0,6.718050480E0,-2.919000149E0
4.629398861E0,-3.715950251E0,7.432050228E0,-2.874000072E0
4.631842325E0,-4.330950260E0,7.486950397E0,-3.256950140E0
4.634285938E0,-3.727950096E0,8.104949951E0,-4.066050053E0
4.636729397E0,-3.100050211E0,9.328050613E0,-4.909050465E0
4.639173010E0,-4.764000416E0,1.051305008E1,-5.706000328E0
4.641616474E0,-7.879050255E0,1.073295021E1,-4.726950169E0
4.644060087E0,-8.088000298E0,9.807000160E0,-3.001050234E0
4.646503550E0,-4.486950397E0,8.466000557E0,-8.500500321E-1
4.648947154E0,-9.649500251E-1,5.836950302E0,-1.665000081E0
4.651390617E0,4.900500178E-1,4.063050270E0,-1.573950052E0
4.653834308E0,6.220500469E-1,3.091050148E0,-1.642950058E0
4.656277694E0,-2.455950022E0,5.437050343E0,-2.827950239E0
4.658721385E0,-5.476050377E0,7.621050358E0,-4.825050354E0
4.661165000E0,-7.222950459E0,9.450000763E0,-6.931950092E0
4.663608464E0,-6.451950073E0,1.073805046E1,-6.304950237E0
4.666052077E0,-5.835000515E0,1.160700035E1,-4.210050106E0
4.668495541E0,-5.547000408E0,9.429000854E0,-1.368000031E0
4.670939154E0,-5.959050179E0,8.860950470E0,-8.959500194E-1
4.673382603E0,-5.004000187E0,7.063050270E0,-3.415050268E0
4.675826217E0,-5.179050446E0,6.001950264E0,-2.983950138E0
4.678269680E0,-3.826050282E0,4.627950191E0,-1.501950026E0
4.680713294E0,-2.073000193E0,5.107050419E0,-2.722950220E0
4.683156757E0,-2.667000055E0,4.908000469E0,-6.051000118E0
4.685600366E0,-3.460050106E0,6.318000317E0,-6.379050255E0
4.688043829E0,-4.639950275E0,7.768950462E0,-6.007950306E0
4.690487443E0,-5.818050385E0,8.100000381E0,-5.224950314E0
4.692930906E0,-6.823950291E0,8.536050797E0,-5.017050266E0
4.695374520E0,-5.719950199E0,9.334950447E0,-5.673000336E0
4.697817968E0,-5.569050312E0,1.059495068E1,-6.763950348E0
4.700261582E0,-6.265950203E0,1.019205093E1,-5.686950207E0
4.702705045E0,-6.064950466E0,9.220050812E0,-1.918050051E0
4.705148658E0,-3.667950153E0,7.087050438E0,-1.372050047E0
4.707592122E0,2.749500275E-1,5.872950077E0,-1.369500011E-1
4.710035750E0,1.567050099E0,4.021950245E0,3.900000080E-2
4.712479214E0,1.507950068E0,3.001950026E0,1.710000038E-1
4.714922827E0,-1.041000009E0,6.667950153E0,-2.328000069E0
4.717366291E0,-5.116050243E0,8.931000710E0,-6.285000324E0
4.719809971E0,-6.892950535E0,1.191105080E1,-1.708050132E0
4.722253358E0,-5.085000038E0,1.167405033E1,-2.589000225E0
4.724697048E0,-5.185950279E0,1.179705048E1,-7.546950340E0
4.727140435E0,-6.627000332E0,8.533050537E0,-6.111000061E0
4.729584125E0,-5.680950165E0,7.360050201E0,-3.514950275E0
4.732027726E0,-1.669050097E0,5.016000271E0,-3.750000238E0
4.734471190E0,-2.274000168E0,4.096950054E0,-3.010050058E0
4.736914803E0,-4.228050232E0,3.292050123E0,-4.240950108E0
4.739358267E0,-2.830050230E0,6.169950485E0,-5.943000317E0
4.741801880E0,-1.984950066E0,5.305950165E0,-5.818950176E0
4.744245344E0,-3.475950241E0,7.449000359E0,-5.470950127E0
4.746688957E0,-7.318950176E0,9.232050896E0,-5.080950260E0
4.749132421E0,-9.342000008E0,1.053705025E1,-4.546950340E0
4.751576034E0,-1.082205009E1,1.046805096E1,-5.962050438E0
4.754019507E0,-8.931000710E0,9.570000648E0,-6.693000317E0
4.756463120E0,-6.811950207E0,8.290950775E0,-7.104000568E0
4.758906584E0,-4.590000153E0,7.153950214E0,-4.332000256E0
4.761350197E0,-2.911050081E0,4.894050121E0,-2.224950075E0
4.763793661E0,-4.879500270E-1,3.421050072E0,-1.387050033E0
4.766237293E0,7.030500174E-1,3.334950209E0,-4.099500179E-1
4.768680757E0,9.139500260E-1,3.606000185E0,-1.447050095E0
4.771124370E0,-6.730500460E-1,6.862050533E0,-1.966050148E0
4.773567833E0,-4.113000393E0,1.020405006E1,-4.300950050E0
4.776011447E0,-7.044000149E0,1.252395058E1,-5.409000397E0
4.778454925E0,-7.543950558E0,1.345800018E1,-6.229950428E0
4.780898539E0,-6.160050392E0,1.253595066E1,-6.421950340E0
4.783342002E0,-5.257950306E0,9.400050163E0,-3.541950226E0
4.785785616E0,-4.402950287E0,6.895050526E0,-3.714000225E0
4.788229079E0,-1.639950037E0,3.490950108E0,-2.328000069E0
4.790672760E0,-1.939050078E0,2.518950224E0,-1.609050035E0
4.793116377E0,-1.258950114E0,1.543950081E0,-2.572050095E0
4.795559839E0,-1.915050149E0,3.775950193E0,-3.670950174E0
4.798003452E0,-2.602050066E0,6.004950523E0,-5.869050503E0
4.800446915E0,-3.550950050E0,9.639000893E0,-6.240000248E0
4.802890529E0,-6.357000351E0,9.964950562E0,-6.123000145E0
4.805333992E0,-1.163805008E1,1.336995029E1,-6.975000381E0
4.807777606E0,-1.366200066E1,1.210500050E1,-8.899950027E0
4.810221069E0,-1.148295021E1,1.134405041E1,-6.682950497E0
4.812664683E0,-6.049950123E0,8.890050888E0,-4.234050274E0
4.815108131E0,-1.681050062E0,3.960000277E0,-1.036949992E0
4.817551745E0,-4.810500145E-1,6.420000196E-1,-8.310000300E-1
4.819995208E0,2.910000086E-1,2.044950008E0,2.860500216E-1
4.822438822E0,1.474050045E0,2.464050055E0,9.990000725E-1
4.824882285E0,6.105000153E-2,4.992000103E0,-3.499500155E-1
4.827325899E0,-3.754050255E0,8.767950058E0,-5.560050488E0
4.829769362E0,-7.587000370E0,1.318995094E1,-8.436000824E0
4.832212975E0,-8.413050652E0,1.339605045E1,-9.481950760E0
4.834656439E0,-7.609050274E0,1.279695034E1,-6.235050201E0
4.837100052E0,-5.899050236E0,9.796950340E0,-4.630950451E0
4.839543525E0,-3.160050154E0,7.291050434E0,-3.894000292E0
4.841987215E0,-2.113950014E0,4.350000381E0,-3.187050104E0
4.844430833E0,-9.889500737E-1,3.025950193E0,-2.947950125E0
4.846874294E0,-9.360000491E-1,1.096050024E0,-2.260500044E-1
4.849317679E0,2.410500050E-1,2.737050056E0,-2.206050158E0
4.851761355E0,1.860000044E-1,7.137000561E0,-4.891950130E0
4.854204971E0,-2.808000088E0,1.080795097E1,-7.497000217E0
4.856648357E0,-7.174950123E0,1.085595036E1,-8.163000107E0
4.859092047E0,-1.043895054E1,1.273500061E1,-8.187000275E0
4.861535511E0,-1.423395061E1,1.318500042E1,-8.625000000E0
4.863979124E0,-1.117905045E1,1.106895065E1,-7.758000374E0
4.866422588E0,-5.136000156E0,7.245000362E0,-4.444050312E0
4.868866201E0,-1.630500108E-1,3.205950260E0,-1.140000105E0
4.871309665E0,1.158000112E0,9.790500402E-1,1.570500135E-1
4.873753278E0,1.558050036E0,9.820500612E-1,2.042999983E0
4.876196742E0,9.760500193E-1,3.490950108E0,1.612050056E0
4.878640355E0,-3.036000252E0,8.076000214E0,-4.023000240E0
4.881084047E0,-6.345000267E0,1.133205032E1,-9.244950294E0
4.883527434E0,-7.314000130E0,1.226595020E1,-8.725049973E0
4.885971124E0,-7.144050121E0,1.270395088E1,-6.147000313E0
4.888414583E0,-6.229950428E0,1.111395073E1,-4.822950363E0
4.890858196E0,-4.968000412E0,8.277000427E0,-5.163000107E0
4.893301660E0,-2.758050203E0,5.361000061E0,-3.891000271E0
4.895745273E0,-2.700000107E-1,2.932950258E0,-6.142050266E0
4.898188737E0,1.407000065E0,2.490000010E0,-5.653050423E0
4.900632350E0,-2.149500102E-1,1.567950130E0,-5.380050182E0
4.903075814E0,-2.527950048E0,4.197000027E0,-6.622950077E0
4.905519427E0,-3.478950262E0,9.040950775E0,-6.733050346E0
4.907962891E0,-5.392050266E0,1.157100010E1,-4.264950275E0
4.910406504E0,-1.030500031E1,1.075500011E1,-4.744050026E0
4.912849973E0,-1.345305061E1,1.317105103E1,-5.929050446E0
4.915293586E0,-1.136805058E1,1.119300079E1,-6.384000301E0
4.917737050E0,-5.641050339E0,8.322000504E0,-2.275050163E0
4.920180663E0,-1.534950018E0,4.060950279E0,-2.293950081E0
4.922624127E0,3.540000021E-1,1.333950043E0,-1.152000070E0
4.925067749E0,3.270000219E-1,1.803000093E0,1.035000086E0
4.927511212E0,1.605000161E-2,4.422000408E0,-1.411050081E0
4.929954826E0,-3.433050156E0,6.510000229E0,-5.026050091E0
4.932398289E0,-5.149950027E0,9.709050179E0,-9.223050117E0
4.934841903E0,-5.575950146E0,1.214400101E1,-8.953050613E0
4.937285347E0,-6.871050358E0,1.335495090E1,-6.040950298E0
4.939728961E0,-6.802050114E0,1.226805019E1,-2.758950233E0
4.942172424E0,-7.522950172E0,8.542950630E0,-3.058050156E0
4.944616038E0,-3.144000053E0,5.521050453E0,-3.598950148E0
4.947059730E0,8.200500607E-1,3.582000256E0,-4.666950226E0
4.949503117E0,1.242000103E0,2.986050129E0,-4.926000118E0
4.951946807E0,-1.345050097E0,1.870050073E0,-4.281000137E0
4.954390194E0,-3.361050129E0,4.923000336E0,-6.673050404E0
4.956833884E0,-3.261000156E0,9.619950294E0,-6.730950356E0
4.959277328E0,-4.846050262E0,1.068600082E1,-5.740050316E0
4.961720942E0,-1.159500027E1,1.099905014E1,-6.349950314E0
4.964164405E0,-1.417395115E1,1.328595066E1,-6.514950275E0
4.966608019E0,-1.058700085E1,1.161000061E1,-5.779950142E0
4.969051482E0,-5.059050083E0,8.479949951E0,-1.447050095E0
4.971495081E0,-2.197950125E0,2.425050020E0,-1.237950087E0
4.973938544E0,5.040000081E-1,6.630000472E-1,4.819500148E-1
4.976382158E0,1.311000109E0,2.047049999E0,2.407050133E0
4.978825621E0,-3.010500073E-1,4.702050209E0,5.400000140E-2
4.981269235E0,-5.289000034E0,7.630050182E0,-5.452050209E0
4.983712708E0,-6.712950230E0,1.004595089E1,-1.103100014E1
4.986156321E0,-5.646000385E0,1.224705029E1,-9.487050056E0
4.988599785E0,-6.637050152E0,1.247205067E1,-7.288950443E0
4.991043398E0,-8.011050224E0,1.126305008E1,-2.605050087E0
4.993486862E0,-7.056000233E0,6.663000107E0,-2.773050070E0
4.995930547E0,-1.693050027E0,4.116000175E0,-2.763000250E0
4.998373934E0,1.989000082E0,2.752950191E0,-4.048950195E0
5.000817624E0,-4.360500276E-1,1.903050065E0,-3.541950226E0
5.003261240E0,-2.668950081E0,2.361000061E0,-4.483050346E0
5.005704703E0,-2.254950047E0,8.029950142E0,-6.855000496E0
5.008148331E0,-3.421050072E0,9.148050308E0,-9.520050049E0
5.010591795E0,-7.116000175E0,9.735000610E0,-7.545000553E0
5.013035408E0,-1.118595028E1,1.110195065E1,-6.750000477E0
5.015478872E0,-1.017795086E1,1.126695061E1,-5.052000046E0
5.017922485E0,-6.376050472E0,7.735950470E0,-1.392000079E0
5.020365935E0,-2.638050079E0,2.749050140E0,-4.240500331E-1
5.022809548E0,3.199500144E-1,1.480050087E0,-1.168950081E0
5.025253012E0,4.090500176E-1,3.538950205E0,7.069500089E-1
5.027696625E0,-1.750050068E0,5.266950130E0,-3.955950260E0
5.030140089E0,-4.684950352E0,8.822999954E0,-7.504050255E0
5.032583687E0,-5.683950424E0,1.119795036E1,-1.015200043E1
5.035027151E0,-6.007050514E0,1.238595104E1,-7.237950325E0
5.037470764E0,-6.510000229E0,1.200495052E1,-4.356000423E0
5.039914228E0,-8.056950569E0,1.090095043E1,-1.617000103E0
5.042357841E0,-6.997950554E0,7.030050278E0,-1.498950124E0
5.044801320E0,-1.314000010E0,4.092000008E0,-2.035950184E0
5.047244933E0,2.001000166E0,3.484050274E0,-4.618950367E0
5.049688397E0,-1.441050053E0,2.454000235E0,-5.584050179E0
5.052132010E0,-2.104050159E0,4.840950012E0,-6.091950417E0
5.054575473E0,-2.109000206E0,8.659950256E0,-7.771950245E0
5.057019164E0,-3.376050234E0,8.332050323E0,-7.389000416E0
5.059462550E0,-6.958050251E0,1.101405048E1,-6.997050285E0
