"Time (s)","Gyroscope x (rad/s)","Gyroscope y (rad/s)","Gyroscope z (rad/s)"
1.015170400E-1,1.755875051E-1,1.475374997E-1,9.418749809E-2
1.039604250E-1,2.171124965E-1,1.414874941E-1,7.466249913E-2
1.064038100E-1,2.501125038E-1,1.390125006E-1,5.018749833E-2
1.088471950E-1,2.745875120E-1,1.354375035E-1,2.461249940E-2
1.112905800E-1,2.903999984E-1,1.342000067E-1,-6.049999967E-3
1.137339540E-1,2.953499854E-1,1.342000067E-1,-4.015000165E-2
1.161773390E-1,2.806375027E-1,1.231999993E-1,-8.167500049E-2
1.186207240E-1,2.549250126E-1,1.267749965E-1,-1.233374998E-1
1.210641080E-1,2.329249978E-1,1.500124931E-1,-1.586750001E-1
1.235074920E-1,2.158749998E-1,1.769624949E-1,-1.891999990E-1
1.259510850E-1,2.000624985E-1,2.087250054E-1,-2.149125040E-1
1.283944720E-1,1.841125041E-1,2.452999949E-1,-2.344374955E-1
1.308378570E-1,1.683000028E-1,2.734875083E-1,-2.479124963E-1
1.332812410E-1,1.511124969E-1,2.868250012E-1,-2.576749921E-1
1.357246260E-1,1.278750002E-1,2.880625129E-1,-2.613874972E-1
1.381679850E-1,1.071124971E-1,2.782999873E-1,-2.674374878E-1
1.406113700E-1,8.511249721E-2,2.587749958E-1,-2.699125111E-1
1.430547550E-1,5.582499877E-2,2.330625057E-1,-2.699125111E-1
1.454981390E-1,2.777500078E-2,2.037750036E-1,-2.686749995E-1
1.479415230E-1,-6.462499965E-3,1.671999991E-1,-2.674374878E-1
1.503848710E-1,-3.822499886E-2,1.317249984E-1,-2.576749921E-1
1.528282550E-1,-7.493750006E-2,1.060125008E-1,-2.503874898E-1
1.552716400E-1,-1.115124971E-1,7.191249728E-2,-2.454375029E-1
1.577150250E-1,-1.445125043E-1,3.767500073E-2,-2.429624945E-1
1.601584100E-1,-1.714625061E-1,1.691249944E-2,-2.381500006E-1
1.626018510E-1,-1.909874976E-1,-1.512499992E-3,-2.307250053E-1
1.650451600E-1,-2.019875050E-1,-1.732499897E-2,-2.222000062E-1
1.674886200E-1,-2.043250054E-1,-2.832499892E-2,-2.099625021E-1
1.699320060E-1,-1.982749999E-1,-3.327500075E-2,-1.929125041E-1
1.723753910E-1,-1.835625023E-1,-3.327500075E-2,-1.769624949E-1
1.748187560E-1,-1.665125042E-1,-2.708750032E-2,-1.611499935E-1
1.772621400E-1,-1.494625062E-1,-1.979999989E-2,-1.501500010E-1
1.797055250E-1,-1.297999918E-1,-1.127499994E-2,-1.428624988E-1
1.821489100E-1,-1.102750003E-1,-1.512499992E-3,-1.366750002E-1
1.845922940E-1,-8.951249719E-2,1.319999993E-2,-1.354375035E-1
1.870356400E-1,-7.369999588E-2,3.272499889E-2,-1.366750002E-1
1.894790240E-1,-5.651250109E-2,5.115000159E-2,-1.416250020E-1
1.919224080E-1,-3.822499886E-2,6.696250290E-2,-1.489125043E-1
1.943657930E-1,-1.993750036E-2,8.291249722E-2,-1.586750001E-1
1.968091780E-1,-3.987499978E-3,9.624999762E-2,-1.696749926E-1
1.992525240E-1,1.058750041E-2,1.060125008E-1,-1.794375032E-1
2.016959090E-1,2.406249940E-2,1.134374961E-1,-1.929125041E-1
2.041395230E-1,3.382499889E-2,1.182499975E-1,-2.063875049E-1
2.065829090E-1,4.482499883E-2,1.219625026E-1,-2.234375030E-1
2.090262940E-1,5.582499877E-2,1.244374961E-1,-2.296250015E-1
2.114696650E-1,6.806249917E-2,1.317249984E-1,-2.381500006E-1
2.139130490E-1,7.906249911E-2,1.329624951E-1,-2.466749996E-1
2.163564340E-1,9.253749996E-2,1.354375035E-1,-2.539624870E-1
2.187998190E-1,1.035374999E-1,1.414874941E-1,-2.613874972E-1
2.212432030E-1,1.132999957E-1,1.475374997E-1,-2.699125111E-1
2.236865730E-1,1.243000031E-1,1.524875015E-1,-2.759625018E-1
2.261299570E-1,1.340624988E-1,1.597750038E-1,-2.796750069E-1
2.285733410E-1,1.425874978E-1,1.707749963E-1,-2.809124887E-1
2.310167260E-1,1.535875052E-1,1.817750037E-1,-2.832500041E-1
2.334601010E-1,1.645874977E-1,1.940124929E-1,-2.821500003E-1
2.359034860E-1,1.755875051E-1,2.062499970E-1,-2.869625092E-1
2.383468710E-1,1.901624948E-1,2.184875011E-1,-2.931500077E-1
2.407903310E-1,2.048749924E-1,2.282499969E-1,-3.052499890E-1
2.432336410E-1,2.171124965E-1,2.380124927E-1,-3.187249899E-1
2.456771100E-1,2.305874974E-1,2.502500117E-1,-3.407250047E-1
2.481204200E-1,2.428250015E-1,2.710124850E-1,-3.627249897E-1
2.505638800E-1,2.574000061E-1,2.917749882E-1,-3.907749951E-1
2.530072660E-1,2.756874859E-1,3.210625052E-1,-4.225375056E-1
2.554506510E-1,2.928749919E-1,3.625875115E-1,-4.519625008E-1
2.578940490E-1,3.123999834E-1,4.115374982E-1,-4.750624895E-1
2.603374340E-1,3.343999982E-1,4.688749909E-1,-4.934875071E-1
2.627808190E-1,3.588750064E-1,5.275874734E-1,-5.057250261E-1
2.652242030E-1,3.832125068E-1,5.874000192E-1,-5.130124688E-1
2.676675870E-1,4.101625085E-1,6.496874690E-1,-5.178250074E-1
2.701109560E-1,4.394499958E-1,7.084000111E-1,-5.178250074E-1
2.725543400E-1,4.736874998E-1,7.621625066E-1,-5.167250037E-1
2.749977250E-1,5.091624856E-1,8.097375035E-1,-5.117750168E-1
2.774411100E-1,5.494499803E-1,8.476874828E-1,-5.080624819E-1
2.798844950E-1,5.922124982E-1,8.817874789E-1,-4.995374978E-1
2.823281190E-1,6.312624812E-1,9.172624946E-1,-4.897750020E-1
2.847715060E-1,6.727874875E-1,9.552124739E-1,-4.739624858E-1
2.872148910E-1,7.130749822E-1,9.893124700E-1,-4.592500031E-1
2.896582750E-1,7.497875094E-1,1.023550034E0,-4.397250116E-1
2.921016600E-1,7.888374925E-1,1.059025049E0,-4.214375019E-1
2.945450160E-1,8.255500197E-1,1.090787530E0,-4.005374908E-1
2.969884000E-1,8.621249795E-1,1.117599964E0,-3.797749877E-1
2.994317850E-1,8.951249719E-1,1.138362527E0,-3.602499962E-1
3.018751690E-1,9.244124889E-1,1.153074980E0,-3.394874930E-1
3.043185530E-1,9.538375139E-1,1.162837505E0,-3.187249899E-1
3.067619370E-1,9.781749845E-1,1.154312491E0,-3.004375100E-1
3.092053210E-1,9.989374876E-1,1.140837550E0,-2.821500003E-1
3.116487060E-1,1.016124964E0,1.114024997E0,-2.723875046E-1
3.140920910E-1,1.031937480E0,1.072499990E0,-2.601499856E-1
3.165355520E-1,1.039362550E0,1.029737473E0,-2.503874898E-1
3.189789390E-1,1.044175029E0,9.893124700E-1,-2.356749922E-1
3.214223230E-1,1.046650052E0,9.514999986E-1,-2.124374956E-1
3.238657080E-1,1.047887444E0,9.135500193E-1,-1.941500008E-1
3.263090930E-1,1.044175029E0,8.634999990E-1,-1.806750000E-1
3.287524770E-1,1.035650015E0,7.975000143E-1,-1.696749926E-1
3.311958760E-1,1.022174954E0,7.217375040E-1,-1.611499935E-1
3.336392600E-1,1.008837461E0,6.351125240E-1,-1.586750001E-1
3.360826440E-1,9.891750216E-1,5.421624780E-1,-1.574375033E-1
3.385260280E-1,9.660750031E-1,4.518249929E-1,-1.611499935E-1
3.409694120E-1,9.415999651E-1,3.638249934E-1,-1.648624986E-1
3.434127970E-1,9.123125076E-1,2.745875120E-1,-1.671999991E-1
3.458561820E-1,8.841249943E-1,1.879625022E-1,-1.696749926E-1
3.482995670E-1,8.523625135E-1,1.024374962E-1,-1.709125042E-1
3.507431820E-1,8.181250095E-1,2.419999987E-2,-1.671999991E-1
3.531865880E-1,7.815499902E-1,-5.279999971E-2,-1.611499935E-1
3.556299730E-1,7.425000072E-1,-1.395625025E-1,-1.526249945E-1
3.580733570E-1,7.020750046E-1,-2.140875012E-1,-1.451999992E-1
3.605167420E-1,6.593124866E-1,-2.739000022E-1,-1.366750002E-1
3.629601270E-1,6.165499687E-1,-3.313750029E-1,-1.306249946E-1
3.654035110E-1,5.737875104E-1,-3.729000092E-1,-1.293874979E-1
3.678468960E-1,5.310249925E-1,-4.009499848E-1,-1.331000030E-1
3.702902800E-1,4.907374978E-1,-4.144249856E-1,-1.428624988E-1
3.727336640E-1,4.529249966E-1,-4.179999828E-1,-1.586750001E-1
3.751770480E-1,4.137375057E-1,-4.192374945E-1,-1.782000065E-1
3.776204320E-1,3.783999979E-1,-4.131875038E-1,-2.026749998E-1
3.800638940E-1,3.441624939E-1,-4.070000052E-1,-2.319625020E-1
3.825072810E-1,3.173500001E-1,-3.924250007E-1,-2.637250125E-1
3.849506650E-1,2.976875007E-1,-3.679499924E-1,-2.954874933E-1
3.873940500E-1,2.855874896E-1,-3.398999870E-1,-3.260124922E-1
3.898374290E-1,2.806375027E-1,-3.007124960E-1,-3.577750027E-1
3.922808140E-1,2.879250050E-1,-2.591874897E-1,-3.871999979E-1
3.947241990E-1,3.051125109E-1,-2.164250016E-1,-4.164874852E-1
3.971675830E-1,3.319250047E-1,-1.761374921E-1,-4.494875073E-1
3.996109670E-1,3.673999906E-1,-1.370874941E-1,-4.873000085E-1
4.020543560E-1,4.137375057E-1,-9.308750182E-2,-5.300624967E-1
4.044977400E-1,4.651624858E-1,-4.784999788E-2,-5.777750015E-1
4.069413560E-1,5.249750018E-1,3.437499981E-3,-6.241124868E-1
4.093845110E-1,5.872625113E-1,6.572499871E-2,-6.718249917E-1
4.118281250E-1,6.580749750E-1,1.377750039E-1,-7.133499980E-1
4.142713040E-1,7.302625179E-1,2.232999951E-1,-7.488250136E-1
4.167149170E-1,8.083624840E-1,3.137750030E-1,-7.781124711E-1
4.191583040E-1,8.903124928E-1,4.065875113E-1,-7.988749743E-1
4.216016880E-1,9.746000171E-1,5.080624819E-1,-8.086374998E-1
4.240450730E-1,1.055174947E0,6.118749976E-1,-8.111125231E-1
4.264884530E-1,1.133412480E0,7.107374668E-1,-8.049250245E-1
4.289318380E-1,1.215224981E0,7.779750228E-1,-7.928249836E-1
4.313752230E-1,1.299512506E0,8.342124820E-1,-7.818250060E-1
4.338186070E-1,1.377750039E0,9.074999690E-1,-7.585874796E-1
4.362619910E-1,1.446087480E0,9.820249677E-1,-7.268249989E-1
4.387054230E-1,1.499850035E0,1.060262442E0,-6.876375079E-1
4.411487320E-1,1.547562480E0,1.145787477E0,-6.437749863E-1
4.435921920E-1,1.585374951E0,1.231312513E0,-5.935875177E-1
4.460355780E-1,1.619612455E0,1.300887465E0,-5.484874845E-1
4.484789630E-1,1.656324983E0,1.338699937E0,-5.092999935E-1
4.509223290E-1,1.696612477E0,1.341174960E0,-4.787749946E-1
4.533657130E-1,1.738137484E0,1.327837467E0,-4.580124915E-1
4.558090980E-1,1.778424978E0,1.303362489E0,-4.409624934E-1
4.582524820E-1,1.808949947E0,1.291124940E0,-4.274874926E-1
4.606958660E-1,1.822425008E0,1.302124977E0,-4.127750099E-1
4.631392450E-1,1.822425008E0,1.327837467E0,-3.969624937E-1
4.655826290E-1,1.807712436E0,1.354650021E0,-3.822500110E-1
4.680260140E-1,1.783375025E0,1.359599948E0,-3.700124919E-1
4.704693990E-1,1.746662498E0,1.338699937E0,-3.724874854E-1
4.729127840E-1,1.701424956E0,1.293599963E0,-3.871999979E-1
4.753561540E-1,1.648900032E0,1.227599978E0,-4.140124917E-1
4.777995390E-1,1.589087486E0,1.160362482E0,-4.507249892E-1
4.802429240E-1,1.529274940E0,1.093262553E0,-4.934875071E-1
4.826863090E-1,1.468087435E0,1.032075047E0,-5.398250222E-1
4.851299220E-1,1.411987543E0,9.857375026E-1,-5.838249922E-1
4.875733090E-1,1.359462500E0,9.490249753E-1,-6.253499985E-1
4.900166930E-1,1.311749935E0,9.245499969E-1,-6.657750010E-1
4.924600780E-1,1.272699952E0,9.099749923E-1,-7.035874724E-1
4.949034630E-1,1.237224936E0,9.002124667E-1,-7.378249764E-1
4.973468470E-1,1.206699967E0,9.014499784E-1,-7.695875168E-1
4.997902320E-1,1.184700012E0,9.074999690E-1,-8.038250208E-1
5.022336160E-1,1.165174961E0,9.185000062E-1,-8.318749666E-1
5.046770000E-1,1.157887459E0,9.270250201E-1,-8.599249721E-1
5.071203840E-1,1.156649947E0,9.294999838E-1,-8.893499970E-1
5.095638450E-1,1.160225034E0,9.429749846E-1,-9.246875048E-1
5.120072320E-1,1.169987440E0,9.710249901E-1,-9.626374841E-1
5.144506160E-1,1.183462501E0,1.018737435E0,-9.906874895E-1
5.168940010E-1,1.193225026E0,1.050500035E0,-1.008975029E0
5.193373860E-1,1.188412547E0,1.030837536E0,-1.016399980E0
5.217807700E-1,1.150462508E0,9.380249977E-1,-1.006637454E0
5.242241410E-1,1.063699961E0,7.731624842E-1,-9.699249864E-1
5.266675260E-1,9.330750108E-1,5.495874882E-1,-9.051625133E-1
5.291109100E-1,7.632625103E-1,3.064875007E-1,-8.123499751E-1
5.315542940E-1,5.702124834E-1,7.919999957E-2,-7.193999887E-1
5.339979230E-1,3.601124883E-1,-1.211374998E-1,-6.437749863E-1
5.364413100E-1,1.365374923E-1,-3.093749881E-1,-6.107749939E-1
5.388846940E-1,-8.346249908E-2,-4.779500067E-1,-6.253499985E-1
5.413280790E-1,-2.886124849E-1,-6.025249958E-1,-6.705874801E-1
5.437714640E-1,-4.621374905E-1,-6.599999666E-1,-7.158250213E-1
5.462148290E-1,-5.843750238E-1,-6.355249882E-1,-7.341125011E-1
5.486582140E-1,-6.454250216E-1,-5.450500250E-1,-7.108749747E-1
5.511015990E-1,-6.393749714E-1,-4.327124953E-1,-6.437749863E-1
5.535449830E-1,-5.781875253E-1,-3.324750066E-1,-5.447750092E-1
5.559883670E-1,-4.731374979E-1,-2.726624906E-1,-4.274874926E-1
5.584317560E-1,-3.412750065E-1,-2.616625130E-1,-3.089624941E-1
5.608751400E-1,-1.909874976E-1,-2.836624980E-1,-1.953874975E-1
5.633185250E-1,-3.822499886E-2,-3.093749881E-1,-9.638749808E-2
5.657619100E-1,1.132999957E-1,-3.179000020E-1,-7.149999961E-3
5.682052950E-1,2.586374879E-1,-2.946625054E-1,6.737499684E-2
5.706486940E-1,3.979249895E-1,-2.408999950E-1,1.308999956E-1
5.730921540E-1,5.372124910E-1,-1.651374996E-1,1.821874976E-1
5.755355410E-1,6.752625108E-1,-8.208750188E-2,2.212374955E-1
5.779789250E-1,8.071249723E-1,5.912499968E-3,2.444749922E-1
5.804223100E-1,9.330750108E-1,9.748750180E-2,2.505249977E-1
5.828657140E-1,1.052700043E0,1.854874939E-1,2.505249977E-1
5.853090980E-1,1.161462545E0,2.710124850E-1,2.444749922E-1
5.877524830E-1,1.256749988E0,3.540624976E-1,2.419999987E-1
5.901958670E-1,1.328799963E0,4.335374832E-1,2.359499931E-1
5.926392510E-1,1.370462537E0,5.103999972E-1,2.285249978E-1
5.950828650E-1,1.385037541E0,5.971624851E-1,2.175250053E-1
5.975260210E-1,1.377750039E0,6.814500093E-1,2.077624947E-1
5.999696350E-1,1.350800037E0,7.754999995E-1,1.955250055E-1
6.024130210E-1,1.301987529E0,8.794500232E-1,1.832875013E-1
6.048564060E-1,1.238462448E0,9.894499779E-1,1.577125043E-1
6.072997770E-1,1.158987522E0,1.094499946E0,1.234750003E-1
6.097431610E-1,1.067412496E0,1.189787507E0,7.466249913E-2
6.121865460E-1,9.769374728E-1,1.236124992E0,1.594999991E-2
6.146299300E-1,8.938875198E-1,1.267887473E0,-7.204999775E-2
6.170733290E-1,8.218374848E-1,1.324125051E0,-2.271499932E-1
6.195167890E-1,7.473124862E-1,1.371837497E0,-4.507249892E-1
6.219601750E-1,6.385499835E-1,1.377887487E0,-6.718249917E-1
6.244035600E-1,4.919750094E-1,1.352174997E0,-8.160625100E-1
6.268469440E-1,3.416875005E-1,1.343649983E0,-8.978750110E-1
6.292903340E-1,2.121624947E-1,1.358362436E0,-9.613999724E-1
6.317337190E-1,1.058750004E-1,1.381600022E0,-1.041975021E0
6.341771030E-1,1.801249944E-2,1.393837452E0,-1.137262464E0
6.366204870E-1,-5.527500063E-2,1.397412539E0,-1.236262441E0
6.390638710E-1,-1.090374961E-1,1.394937515E0,-1.335262537E0
6.415072690E-1,-1.469874978E-1,1.376649976E0,-1.417075038E0
6.439506540E-1,-1.567499936E-1,1.346125007E0,-1.480599999E0
6.463940390E-1,-1.469874978E-1,1.310649991E0,-1.520887494E0
6.488374240E-1,-1.127500013E-1,1.272837520E0,-1.538074970E0
6.512810380E-1,-6.270000339E-2,1.236124992E0,-1.539312482E0
6.537244490E-1,-1.649999991E-3,1.199550033E0,-1.529549956E0
6.561678340E-1,7.053750008E-2,1.164075017E0,-1.514837503E0
6.586112180E-1,1.535875052E-1,1.127499938E0,-1.496549964E0
6.610546030E-1,2.501125038E-1,1.084737539E0,-1.474550009E0
6.634979880E-1,3.551625013E-1,1.041975021E0,-1.451312542E0
6.659413960E-1,4.626874924E-1,9.992125034E-1,-1.420787454E0
6.683847810E-1,5.714499950E-1,9.539750218E-1,-1.382837534E0
6.708281650E-1,6.654999852E-1,8.977375031E-1,-1.337737441E0
6.732716250E-1,7.485499978E-1,8.329749703E-1,-1.290024996E0
6.757149350E-1,8.193625212E-1,7.658749819E-1,-1.246024966E0
6.781584090E-1,8.780750036E-1,6.986374855E-1,-1.206974983E0
6.806017960E-1,9.233124852E-1,6.424000263E-1,-1.169024944E0
6.830451800E-1,9.561749697E-1,6.045874953E-1,-1.129974961E0
6.854885650E-1,9.818875194E-1,5.886374712E-1,-1.088449955E0
6.879319500E-1,9.978374839E-1,5.898749828E-1,-1.045687437E0
6.903753240E-1,1.006362438E0,6.021124721E-1,-1.005399942E0
6.928187090E-1,1.009937525E0,6.228749752E-1,-9.651125073E-1
6.952620940E-1,1.011175036E0,6.473500133E-1,-9.333499670E-1
6.977054780E-1,1.009937525E0,6.778749824E-1,-9.051625133E-1
7.001490920E-1,1.011175036E0,7.132124901E-1,-8.893499970E-1
7.025924830E-1,1.017362475E0,7.511624694E-1,-8.795874715E-1
7.050358680E-1,1.024649978E0,7.914500237E-1,-8.771125078E-1
7.074792520E-1,1.042937517E0,8.281624913E-1,-8.831624985E-1
7.099226370E-1,1.062462449E0,8.659750223E-1,-8.868749738E-1
7.123660220E-1,1.089412451E0,9.026874900E-1,-8.893499970E-1
7.148094160E-1,1.119937539E0,9.405000210E-1,-8.868749738E-1
7.172528010E-1,1.149224997E0,9.807875156E-1,-8.795874715E-1
7.196961850E-1,1.179749966E0,1.021212459E0,-8.698250055E-1
7.221395690E-1,1.217700005E0,1.061499953E0,-8.588249683E-1
7.245829530E-1,1.261700034E0,1.100549936E0,-8.490625024E-1
7.270264080E-1,1.303225040E0,1.131075025E0,-8.453499675E-1
7.294697950E-1,1.343512535E0,1.154312491E0,-8.514000177E-1
7.319131800E-1,1.378987551E0,1.164075017E0,-8.685874939E-1
7.343565640E-1,1.404562473E0,1.158025026E0,-8.953999877E-1
7.367999490E-1,1.421749949E0,1.140837550E0,-9.296374917E-1
7.392433470E-1,1.429037452E0,1.117599964E0,-9.699249864E-1
7.416867320E-1,1.426562548E0,1.087074995E0,-1.013924956E0
7.441301170E-1,1.413087487E0,1.050500035E0,-1.059162498E0
7.465735010E-1,1.391224980E0,1.010212541E0,-1.104400039E0
7.490168850E-1,1.355749965E0,9.710249901E-1,-1.150737524E0
7.514602790E-1,1.310512543E0,9.392625093E-1,-1.200787544E0
7.539038940E-1,1.254274964E0,9.160249829E-1,-1.246024966E0
7.563472800E-1,1.187175035E0,8.989750147E-1,-1.285212517E0
7.587906650E-1,1.111412525E0,8.744999766E-1,-1.318074942E0
7.612340500E-1,1.031937480E0,8.439750075E-1,-1.345024943E0
7.636774480E-1,9.403625131E-1,8.109750152E-1,-1.359737515E0
7.661208330E-1,8.365499973E-1,7.829250097E-1,-1.368262529E0
7.685642180E-1,7.192624807E-1,7.658749819E-1,-1.365787506E0
7.710076770E-1,5.897374749E-1,7.584499717E-1,-1.358500004E0
7.734510550E-1,4.504500031E-1,7.658749819E-1,-1.349837542E0
7.758944390E-1,3.123999834E-1,7.877374887E-1,-1.341312528E0
7.783378240E-1,1.718750000E-1,8.196374774E-1,-1.330312490E0
7.807812090E-1,3.877500072E-2,8.562124968E-1,-1.321787477E0
7.832245930E-1,-8.703749627E-2,8.916875124E-1,-1.312024951E0
7.856679780E-1,-1.982749999E-1,9.222124815E-1,-1.299787521E0
7.881113620E-1,-2.972750068E-1,9.477875233E-1,-1.281499982E0
7.905547460E-1,-3.790875077E-1,9.662125111E-1,-1.252212524E0
7.929981300E-1,-4.401375055E-1,9.894499779E-1,-1.206974983E0
7.954415140E-1,-4.768500030E-1,1.018737435E0,-1.154449940E0
7.978848890E-1,-4.866124988E-1,1.066312551E0,-1.101925015E0
8.003282740E-1,-4.621374905E-1,1.133550048E0,-1.055449963E0
8.027716590E-1,-4.083749950E-1,1.225124955E0,-1.026162505E0
8.052152740E-1,-3.350875080E-1,1.342412472E0,-1.017637491E0
8.076586600E-1,-2.459875047E-1,1.480462551E0,-1.034687519E0
8.101020350E-1,-1.457500011E-1,1.639274955E0,-1.067687511E0
8.125454190E-1,-3.451250121E-2,1.809087515E0,-1.106737494E0
8.149888040E-1,8.511249721E-2,1.979037523E0,-1.137262464E0
8.174321890E-1,2.109249979E-1,2.135375023E0,-1.159262538E0
8.198755730E-1,3.404499888E-1,2.270950079E0,-1.165449977E0
8.223189630E-1,4.687374830E-1,2.379712582E0,-1.158025026E0
8.247624230E-1,5.909749866E-1,2.460287571E0,-1.136162519E0
8.272058090E-1,7.130749822E-1,2.522574902E0,-1.115262508E0
8.296491940E-1,8.328375220E-1,2.567812443E0,-1.099449992E0
8.320925780E-1,9.488874674E-1,2.591049910E0,-1.098212481E0
8.345359630E-1,1.061362505E0,2.593524933E0,-1.109212518E0
8.369793480E-1,1.163937449E0,2.583762407E0,-1.131212473E0
8.394227320E-1,1.260462523E0,2.566575050E0,-1.156924963E0
8.418661160E-1,1.343512535E0,2.545812368E0,-1.181262493E0
8.443095000E-1,1.415562510E0,2.517762423E0,-1.204499960E0
8.467528600E-1,1.482800007E0,2.466475010E0,-1.222787499E0
8.491964750E-1,1.559800029E0,2.366237402E0,-1.227737546E0
8.516396310E-1,1.646562457E0,2.219662428E0,-1.210687518E0
8.540832450E-1,1.723425031E0,2.055900097E0,-1.171499968E0
8.565266310E-1,1.767424941E0,1.902037501E0,-1.131212473E0
8.589700110E-1,1.760137439E0,1.771275043E0,-1.095737457E0
8.614133960E-1,1.713662505E0,1.634462476E0,-1.067687511E0
8.638567800E-1,1.642850041E0,1.470700026E0,-1.048162460E0
8.663001650E-1,1.558562517E0,1.276549935E0,-1.045687437E0
8.687435490E-1,1.462037444E0,1.062737465E0,-1.061637521E0
8.711870090E-1,1.358224988E0,8.452125192E-1,-1.094499946E0
8.736303960E-1,1.248224974E0,6.461125016E-1,-1.137262464E0
8.760737800E-1,1.130937457E0,4.738250077E-1,-1.188687444E0
8.785171650E-1,1.007599950E0,3.297249973E-1,-1.236262441E0
8.809605490E-1,8.828874826E-1,2.037750036E-1,-1.264312506E0
8.834039340E-1,7.558375001E-1,8.772499859E-2,-1.274212480E0
8.858475470E-1,6.300249696E-1,-2.708750032E-2,-1.263212442E0
8.882909340E-1,5.127375126E-1,-1.504250020E-1,-1.236262441E0
8.907343190E-1,4.089249969E-1,-2.811875045E-1,-1.199687481E0
8.931777030E-1,3.271124959E-1,-4.070000052E-1,-1.158025026E0
8.956210880E-1,2.745875120E-1,-5.255249739E-1,-1.111687541E0
8.980644730E-1,2.525874972E-1,-6.355249882E-1,-1.068925023E0
9.005078570E-1,2.525874972E-1,-7.308124900E-1,-1.026162505E0
9.029512420E-1,2.721124887E-1,-8.113874793E-1,-9.809250236E-1
9.053946170E-1,3.038749993E-1,-8.651499748E-1,-9.283999801E-1
9.078380010E-1,3.392125070E-1,-8.981499672E-1,-8.673499823E-1
9.102813850E-1,3.734500110E-1,-9.274374843E-1,-7.964000106E-1
9.127247690E-1,4.027374983E-1,-9.543874860E-1,-7.218750119E-1
9.151681540E-1,4.259749949E-1,-9.787250161E-1,-6.510624886E-1
9.176116200E-1,4.431625009E-1,-9.971500039E-1,-5.948249698E-1
9.200550070E-1,4.564999938E-1,-1.001962543E0,-5.520625114E-1
9.224983920E-1,4.749250114E-1,-9.836750031E-1,-5.289624929E-1
9.249417760E-1,5.054500103E-1,-9.348624945E-1,-5.202999711E-1
9.273851610E-1,5.482124686E-1,-8.468624949E-1,-5.264874697E-1
9.298285320E-1,6.044499874E-1,-7.271000147E-1,-5.422999859E-1
9.322721450E-1,6.740249991E-1,-5.890499949E-1,-5.643000007E-1
9.347153010E-1,7.570750117E-1,-4.510000050E-1,-5.802500248E-1
9.371589140E-1,8.475499749E-1,-3.239499927E-1,-5.912500024E-1
9.396023010E-1,9.440749884E-1,-2.116124928E-1,-5.900124907E-1
9.420456700E-1,1.050362468E0,-1.138499975E-1,-5.802500248E-1
9.444890550E-1,1.167649984E0,-1.856249943E-2,-5.520625114E-1
9.469324400E-1,1.297037482E0,8.538749814E-2,-5.142499804E-1
9.493758240E-1,1.440037489E0,2.062499970E-1,-4.702500105E-1
9.518192090E-1,1.593899965E0,3.515875041E-1,-4.274874926E-1
9.542625800E-1,1.766187549E0,5.238749981E-1,-3.884375095E-1
9.567059640E-1,1.967762470E0,7.291625142E-1,-3.469125032E-1
9.591494240E-1,2.193812370E0,9.442124963E-1,-2.967250049E-1
9.615928100E-1,2.399100065E0,1.109074950E0,-2.491499931E-1
9.640361950E-1,2.546912432E0,1.181262493E0,-2.296250015E-1
9.664795940E-1,2.625149965E0,1.191025019E0,-2.466749996E-1
9.689229780E-1,2.640962601E0,1.191025019E0,-2.894375026E-1
9.713663630E-1,2.609200001E0,1.230075002E0,-3.444375098E-1
9.738097470E-1,2.548150063E0,1.322887540E0,-4.030124843E-1
9.762533610E-1,2.469912529E0,1.459699988E0,-4.494875073E-1
9.786967570E-1,2.389337540E0,1.606412530E0,-4.837250113E-1
9.811401420E-1,2.318387508E0,1.733462453E0,-4.982999861E-1
9.835835270E-1,2.261049986E0,1.823799968E0,-4.910124838E-1
9.860269110E-1,2.224337578E0,1.880037546E0,-4.641999900E-1
9.884702960E-1,2.203574896E0,1.910562515E0,-4.226749837E-1
9.909136760E-1,2.192574978E0,1.925274968E0,-3.749625087E-1
9.933570600E-1,2.182812452E0,1.932562470E0,-3.284874856E-1
9.958004440E-1,2.168237448E0,1.937374949E0,-2.869625092E-1
9.982438280E-1,2.141287565E0,1.938612461E0,-2.564375103E-1
1.000687289E0,2.104574919E0,1.931324959E0,-2.344374955E-1
1.003130690E0,2.059474945E0,1.908087492E0,-2.186249942E-1
1.005574074E0,2.010524988E0,1.876325011E0,-2.111999989E-1
1.008017459E0,1.959237456E0,1.825037479E0,-1.966249943E-1
1.010460843E0,1.906712532E0,1.752987504E0,-1.758625060E-1
1.012904228E0,1.851712465E0,1.661275029E0,-1.453374922E-1
1.015347603E0,1.794374943E0,1.561174989E0,-1.086250022E-1
1.017791216E0,1.738137484E0,1.460937500E0,-6.462500244E-2
1.020234603E0,1.688087463E0,1.376649976E0,-2.062499896E-2
1.022677987E0,1.650137544E0,1.318074942E0,2.089999989E-2
1.025121372E0,1.620849967E0,1.291124940E0,5.623750016E-2
1.027564757E0,1.601325035E0,1.285074949E0,8.318749815E-2
1.030008141E0,1.595137477E0,1.298412442E0,1.064250022E-1
1.032451601E0,1.601325035E0,1.320412517E0,1.197625026E-1
1.034894910E0,1.617137432E0,1.335124969E0,1.332374960E-1
1.037338370E0,1.639137506E0,1.335124969E0,1.454750001E-1
1.039781757E0,1.662374973E0,1.297312498E0,1.612875015E-1
1.042225141E0,1.669662476E0,1.202024937E0,1.797125041E-1
1.044668526E0,1.659899950E0,1.076074958E0,2.052875012E-1
1.047111910E0,1.646562457E0,9.917874932E-1,2.285249978E-1
1.049555295E0,1.636662483E0,9.466875196E-1,2.505249977E-1
1.051998661E0,1.624562502E0,9.367874861E-1,2.652375102E-1
1.054442045E0,1.619612455E0,9.747374654E-1,2.785750031E-1
1.056885659E0,1.622087479E0,1.034549952E0,2.945249975E-1
1.059329045E0,1.634325027E0,1.107837439E0,3.140499890E-1
1.061772430E0,1.655087471E0,1.187312484E0,3.299999833E-1
1.064215801E0,1.673375010E0,1.227599978E0,3.458124995E-1
1.066659185E0,1.689324975E0,1.237362504E0,3.592875004E-1
1.069102570E0,1.705137491E0,1.221549988E0,3.775750101E-1
1.071545954E0,1.729612470E0,1.191025019E0,3.983374834E-1
1.073989348E0,1.764950037E0,1.138499975E0,4.178625047E-1
1.076432733E0,1.810187459E0,1.065075040E0,4.338124990E-1
1.078876192E0,1.863950014E0,1.006500006E0,4.411000013E-1
1.081319502E0,1.922662497E0,9.992125034E-1,4.350500107E-1
1.083762962E0,1.983712435E0,1.041975021E0,4.190999866E-1
1.086206348E0,2.037474871E0,1.116500020E0,3.983374834E-1
1.088649733E0,2.080237389E0,1.202024937E0,3.848625124E-1
1.091093117E0,2.114475012E0,1.276549935E0,3.812874854E-1
1.093536502E0,2.138812542E0,1.341174960E0,3.898124993E-1
1.095980115E0,2.158337593E0,1.380362511E0,4.081000090E-1
1.098423502E0,2.181575060E0,1.390125036E0,3.958624899E-1
1.100866887E0,2.204812527E0,1.366887450E0,3.958624899E-1
1.103310271E0,2.215812445E0,1.308312535E0,4.263874888E-1
1.105753656E0,2.214575052E0,1.233787537E0,4.716250002E-1
1.108197040E0,2.206049919E0,1.161737442E0,5.229125023E-1
1.110640490E0,2.191337585E0,1.111549973E0,5.669124722E-1
1.113083800E0,2.177999973E0,1.095737457E0,6.036249995E-1
1.115527259E0,2.168099880E0,1.118975043E0,6.329125166E-1
1.117970569E0,2.179100037E0,1.186074972E0,6.573874950E-1
1.120414029E0,2.197525024E0,1.279024959E0,6.769124866E-1
1.122857419E0,2.220762491E0,1.375550032E0,6.914874911E-1
1.125300804E0,2.246337414E0,1.464650035E0,7.049624920E-1
1.127744188E0,2.274387598E0,1.536700010E0,7.196750045E-1
1.130187573E0,2.307387590E0,1.588124990E0,7.464874983E-1
1.132631186E0,2.342862606E0,1.617412448E0,7.904874682E-1
1.135074588E0,2.386862516E0,1.616174936E0,8.405374885E-1
1.137517973E0,2.435674906E0,1.577124953E0,8.907250166E-1
1.139961357E0,2.499199867E0,1.502599955E0,9.358249903E-1
1.142404742E0,2.571387529E0,1.409649968E0,9.700624943E-1
1.144848126E0,2.654437542E0,1.314362526E0,9.957749844E-1
1.147291511E0,2.747250080E0,1.227599978E0,1.006775022E0
1.149734896E0,2.842537403E0,1.154312491E0,1.009112477E0
1.152178280E0,2.937824965E0,1.087212443E0,1.005537510E0
1.154621664E0,3.029537439E0,1.022449970E0,9.993500113E-1
1.157065125E0,3.116162539E0,9.442124963E-1,9.945374727E-1
1.159508506E0,3.195637465E0,8.452125192E-1,9.957749844E-1
1.161951891E0,3.267687559E0,7.206375003E-1,9.981124997E-1
1.164395275E0,3.338500023E0,5.777750015E-1,1.000587463E0
1.166838660E0,3.410687447E0,4.200625122E-1,1.000587463E0
1.169282273E0,3.486449957E0,2.612499893E-1,9.970124960E-1
1.171725650E0,3.567024946E0,1.183874980E-1,9.785875082E-1
1.174169035E0,3.646499872E0,-1.374999993E-4,9.530124664E-1
1.176612419E0,3.723362446E0,-7.961250097E-2,9.187750220E-1
1.179055804E0,3.790600061E0,-1.076624990E-1,8.772500157E-1
1.181499189E0,3.851650000E0,-8.566249907E-2,8.295375109E-1
1.183942573E0,3.906650066E0,-3.808749840E-2,7.782499790E-1
1.186385958E0,3.960412502E0,1.457499992E-2,7.269625068E-1
1.188829417E0,4.014174938E0,5.843750015E-2,6.769124866E-1
1.191272727E0,4.070412636E0,8.043749630E-2,6.267250180E-1
1.193716173E0,4.131462574E0,7.562500238E-2,5.729625225E-1
1.196159559E0,4.191275120E0,4.262499884E-2,5.143874884E-1
1.198602944E0,4.252462387E0,-6.324999966E-3,4.446749985E-1
1.201046328E0,4.308562279E0,-4.537500069E-2,3.641000092E-1
1.203489713E0,4.361087322E0,-5.142499879E-2,2.712875009E-1
1.205933331E0,4.402612686E0,-1.113750041E-2,1.685750037E-1
1.208376718E0,4.430799961E0,8.167500049E-2,5.995000154E-2
1.210820103E0,4.445374966E0,2.124374956E-1,-4.633750021E-2
1.213263487E0,4.451562405E0,3.651999831E-1,-1.403875053E-1
1.215706872E0,4.455137253E0,5.263500214E-1,-2.149125040E-1
1.218150257E0,4.462562561E0,6.828249693E-1,-2.589125037E-1
1.220593641E0,4.473562241E0,8.184000254E-1,-2.699125111E-1
1.223037026E0,4.493087292E0,9.307374954E-1,-2.491499931E-1
1.225480410E0,4.515087605E0,1.010212541E0,-1.966249943E-1
1.227923870E0,4.539562702E0,1.066450000E0,-1.258125007E-1
1.230367262E0,4.562662601E0,1.107975006E0,-4.028749838E-2
1.232810646E0,4.584662437E0,1.149500012E0,4.895000160E-2
1.235254031E0,4.605424881E0,1.195837498E0,1.417624950E-1
1.237697415E0,4.622612476E0,1.254549980E0,2.272875011E-1
1.240140800E0,4.642137527E0,1.331550002E0,3.030500114E-1
1.242584417E0,4.657949924E0,1.424362540E0,3.701499999E-1
1.245027804E0,4.670187473E0,1.531887531E0,4.276250005E-1
1.247471189E0,4.677612305E0,1.640650034E0,4.863374829E-1
1.249914573E0,4.678712368E0,1.745700002E0,5.522000194E-1
1.252357958E0,4.679949760E0,1.838512540E0,6.304374933E-1
1.254801353E0,4.683662415E0,1.910562515E0,7.209125161E-1
1.257244737E0,4.689712524E0,1.953325033E0,8.222500086E-1
1.259688122E0,4.695899963E0,1.955799937E0,9.322500229E-1
1.262131581E0,4.699612617E0,1.931324959E0,1.040874958E0
1.264574968E0,4.706900120E0,1.877562523E0,1.147162437E0
1.267018343E0,4.715425014E0,1.806749940E0,1.243687510E0
1.269461727E0,4.721475124E0,1.727412462E0,1.326874971E0
1.271905341E0,4.726425171E0,1.645462513E0,1.398924947E0
1.274348727E0,4.725187302E0,1.570937514E0,1.451449990E0
1.276792112E0,4.712949753E0,1.512362480E0,1.484449983E0
1.279235491E0,4.699612617E0,1.474412441E0,1.505212545E0
1.281678876E0,4.682425022E0,1.442649961E0,1.517449975E0
1.284122261E0,4.668950081E0,1.404837489E0,1.524737477E0
1.286565645E0,4.656849861E0,1.344887495E0,1.533262491E0
1.289009030E0,4.643374920E0,1.254549980E0,1.540549994E0
1.291452415E0,4.626187325E0,1.129974961E0,1.544262528E0
1.293895799E0,4.606662273E0,9.735000134E-1,1.540549994E0
1.296339259E0,4.579850197E0,8.001124859E-1,1.529687524E0
1.298782645E0,4.541900158E0,6.205375195E-1,1.505212545E0
1.301226030E0,4.493087292E0,4.567750096E-1,1.467262506E0
1.303669421E0,4.432037354E0,3.224374950E-1,1.413499951E0
1.306113034E0,4.367274761E0,2.307250053E-1,1.340212464E0
1.308556190E0,4.302512646E0,1.916749924E-1,1.251112461E0
1.310999803E0,4.240224838E0,2.001999915E-1,1.150874972E0
1.313442954E0,4.179037571E0,2.404875010E-1,1.050775051E0
1.315886567E0,4.122937679E0,2.979624867E-1,9.578250051E-1
1.318329954E0,4.066699982E0,3.517250121E-1,8.735374808E-1
1.320773339E0,4.005650043E0,3.859624863E-1,7.990124822E-1
1.323216723E0,3.940887451E0,3.859624863E-1,7.269625068E-1
1.325660169E0,3.867599964E0,3.602499962E-1,6.573874950E-1
1.328103555E0,3.784549952E0,3.162499964E-1,5.901499987E-1
1.330546940E0,3.694074869E0,2.771999836E-1,5.191999674E-1
1.332990325E0,3.593837500E0,2.612499893E-1,4.508624971E-1
1.335433709E0,3.488787413E0,2.894375026E-1,3.800500035E-1
1.337877328E0,3.382499933E0,3.749625087E-1,3.091000021E-1
1.340320484E0,3.278687477E0,5.130124688E-1,2.382874936E-1
1.342764097E0,3.176112413E0,6.851624846E-1,1.759999990E-1
1.345207253E0,3.068587542E0,8.599249721E-1,1.247124970E-1
1.347650866E0,2.957350016E0,1.018737435E0,8.799999952E-2
1.350094238E0,2.843775034E0,1.147024989E0,6.118749827E-2
1.352537622E0,2.731437445E0,1.237499952E0,4.276249930E-2
1.354981007E0,2.623912573E0,1.287549973E0,2.942499891E-2
1.357424392E0,2.524912596E0,1.308312535E0,2.199999988E-2
1.359867851E0,2.435674906E0,1.302124977E0,1.718750037E-2
1.362311253E0,2.358812571E0,1.266787529E0,1.842499897E-2
1.364754637E0,2.292812586E0,1.189787507E0,2.694999985E-2
1.367198022E0,2.236574888E0,1.067687511E0,4.276249930E-2
1.369641407E0,2.188999891E0,9.039250016E-1,6.847500056E-2
1.372084791E0,2.155999899E0,7.108749747E-1,9.404999763E-2
1.374528190E0,2.126574993E0,5.080624819E-1,1.234750003E-1
1.376971575E0,2.099762440E0,3.137750030E-1,1.515250057E-1
1.379415188E0,2.064287424E0,1.537249982E-1,1.772374958E-1
1.381858575E0,2.017950058E0,3.643750027E-2,2.040500045E-1
1.384301959E0,1.959237456E0,-3.684999794E-2,2.320999950E-1
1.386745368E0,1.893237472E0,-6.861250103E-2,2.663374841E-1
1.389188827E0,1.817474961E0,-6.118749827E-2,3.030500114E-1
1.391632137E0,1.735662460E0,-1.966249943E-2,3.493874967E-1
1.394075597E0,1.653849959E0,4.509999976E-2,4.043875039E-1
1.396518983E0,1.567087531E0,1.183874980E-1,4.666749835E-1
1.398962382E0,1.479087472E0,1.904374957E-1,5.266249776E-1
1.401405766E0,1.391087532E0,2.514874935E-1,5.852000117E-1
1.403849151E0,1.305699944E0,2.942500114E-1,6.474875212E-1
1.406292536E0,1.222512484E0,3.077250123E-1,7.099124789E-1
1.408736149E0,1.145650029E0,2.844874859E-1,7.660124898E-1
1.411179536E0,1.080887437E0,2.319625020E-1,8.210124969E-1
1.413622920E0,1.027125001E0,1.476749927E-1,8.760125041E-1
1.416066305E0,9.879375100E-1,3.643750027E-2,9.272999763E-1
1.418509690E0,9.586499929E-1,-9.666249901E-2,9.700624943E-1
1.420953149E0,9.293624759E-1,-2.407625020E-1,1.004299998E0
1.423396468E0,9.013124704E-1,-3.800500035E-1,1.028774977E0
1.425839927E0,8.658375144E-1,-5.047624707E-1,1.042112470E0
1.428283314E0,8.193625212E-1,-6.000499725E-1,1.043349981E0
1.430726699E0,7.607874870E-1,-6.561499834E-1,1.028774977E0
1.433170092E0,6.875000000E-1,-6.671500206E-1,1.001824975E0
1.435613477E0,5.957875252E-1,-6.280999780E-1,9.615374804E-1
1.438056862E0,4.956874847E-1,-5.475249887E-1,9.200124741E-1
1.440500475E0,3.844499886E-1,-4.314749837E-1,8.833000064E-1
1.442943862E0,2.696374953E-1,-2.934249938E-1,8.503000140E-1
1.445387251E0,1.523499936E-1,-1.516624987E-1,8.197749853E-1
1.447830636E0,3.135000169E-2,-1.237499993E-2,7.867749929E-1
1.450274020E0,-8.951249719E-2,1.159124970E-1,7.501999736E-1
1.452717405E0,-2.142249942E-1,2.331999987E-1,7.099124789E-1
1.455160790E0,-3.485625088E-1,3.504875004E-1,6.621999741E-1
1.457604184E0,-4.890874922E-1,4.860624969E-1,6.084374785E-1
1.460047644E0,-6.307125092E-1,6.473500133E-1,5.522000194E-1
1.462491030E0,-7.687624693E-1,8.244500160E-1,4.973374903E-1
1.464934415E0,-8.970500231E-1,1.006500006E0,4.471499920E-1
1.467377800E0,-1.011999965E0,1.182500005E0,4.081000090E-1
1.469821427E0,-1.112100005E0,1.335124969E0,3.775750101E-1
1.472264814E0,-1.198862553E0,1.451174974E0,3.555749953E-1
1.474708198E0,-1.270912528E0,1.523362517E0,3.420999944E-1
1.477151583E0,-1.327149987E0,1.558699965E0,3.396250010E-1
1.479594968E0,-1.364962459E0,1.558699965E0,3.470500112E-1
1.482038352E0,-1.390674949E0,1.535599947E0,3.603875041E-1
1.484481737E0,-1.406625032E0,1.491600037E0,3.726249933E-1
1.486925121E0,-1.411437511E0,1.437837481E0,3.811500072E-1
1.489368581E0,-1.407724977E0,1.379124999E0,3.800500035E-1
1.491811968E0,-1.393149972E0,1.313125014E0,3.738625050E-1
1.494255358E0,-1.368674994E0,1.232550025E0,3.641000092E-1
1.496698743E0,-1.333199978E0,1.127499938E0,3.518624902E-1
1.499142356E0,-1.290437460E0,9.931625128E-1,3.433375061E-1
1.501585743E0,-1.237912536E0,8.354499936E-1,3.335750103E-1
1.504029127E0,-1.181812525E0,6.681125164E-1,3.250499964E-1
1.506472531E0,-1.126812458E0,5.105375051E-1,3.176249862E-1
1.508915916E0,-1.079100013E0,3.761999905E-1,3.128125072E-1
1.511359300E0,-1.034000039E0,2.686749995E-1,3.140499890E-1
1.513802685E0,-9.923374653E-1,1.916749924E-1,3.201000094E-1
1.516246144E0,-9.582374692E-1,1.366750002E-1,3.383874893E-1
1.518689549E0,-9.264749885E-1,9.267500043E-2,3.678124845E-1
1.521132934E0,-8.970500231E-1,5.733750015E-2,4.105750024E-1
1.523576318E0,-8.727124929E-1,2.433750033E-2,4.581499994E-1
1.526019703E0,-8.507124782E-1,-1.608750038E-2,5.106750131E-1
1.528463088E0,-8.311874866E-1,-5.884999782E-2,5.644375086E-1
1.530906468E0,-8.115249872E-1,-9.913749993E-2,6.109125018E-1
1.533349852E0,-7.969499826E-1,-1.271875054E-1,6.499624848E-1
1.535793236E0,-7.884249687E-1,-1.161874980E-1,6.817250252E-1
1.538236851E0,-7.932375073E-1,-5.018749833E-2,7.134875059E-1
1.540680237E0,-8.127624989E-1,7.067500055E-2,7.489625216E-1
1.543123626E0,-8.494749665E-1,2.404875010E-1,7.977749705E-1
1.545567011E0,-8.970500231E-1,4.397250116E-1,8.552500010E-1
1.548010470E0,-9.508125186E-1,6.510624886E-1,9.235875010E-1
1.550453857E0,-1.004575014E0,8.623999953E-1,9.945374727E-1
1.552897241E0,-1.052287459E0,1.066450000E0,1.067824960E0
1.555340608E0,-1.092574954E0,1.266787529E0,1.138637543E0
1.557783993E0,-1.125574946E0,1.465887547E0,1.208349943E0
1.560227377E0,-1.156100035E0,1.660174966E0,1.271875024E0
1.562670762E0,-1.184149981E0,1.845800042E0,1.327975035E0
1.565114375E0,-1.207387447E0,2.016849995E0,1.379400015E0
1.567557752E0,-1.225812435E0,2.163562536E0,1.419687510E0
1.570001137E0,-1.236675024E0,2.273425102E0,1.447737455E0
1.572444521E0,-1.236675024E0,2.335712433E0,1.455162525E0
1.574887981E0,-1.220862508E0,2.344374895E0,1.445262551E0
1.577331367E0,-1.184149981E0,2.305187464E0,1.413499951E0
1.579774724E0,-1.125574946E0,2.217187405E0,1.363450050E0
1.582218109E0,-1.048575044E0,2.091374874E0,1.291399956E0
1.584661493E0,-9.605749846E-1,1.916749954E0,1.202162504E0
1.587104878E0,-8.629499674E-1,1.700462461E0,1.100824952E0
1.589548262E0,-7.687624693E-1,1.436599970E0,9.138249755E-1
1.591991856E0,-7.407125235E-1,8.868749738E-1,4.483875036E-1
1.594435242E0,-9.960500002E-1,-1.956624985E-1,4.899125099E-1
1.596878627E0,-1.085287452E0,-7.429124713E-1,6.023874879E-1
1.599322012E0,-1.054762483E0,-7.771499753E-1,3.971000016E-1
1.601765396E0,-9.789999723E-1,-6.721000075E-1,2.968625128E-1
1.604208786E0,-1.043762445E0,-8.002499938E-1,4.837250113E-1
1.606652171E0,-1.110862494E0,-7.917249799E-1,6.217749715E-1
1.609095555E0,-1.084049940E0,-4.386250079E-1,5.106750131E-1
1.611539015E0,-1.064525008E0,1.209999993E-2,3.554374874E-1
1.613982391E0,-1.092574954E0,4.067249894E-1,2.993375063E-1
1.616425776E0,-1.167099953E0,6.510624886E-1,3.701499999E-1
1.618869161E0,-1.285624981E0,7.255874872E-1,4.239124954E-1
1.621312774E0,-1.389437437E0,7.207750082E-1,4.641999900E-1
1.623756161E0,-1.474962473E0,6.608250141E-1,4.606249928E-1
1.626199531E0,-1.525012493E0,6.045874953E-1,4.190999866E-1
1.628642916E0,-1.536012530E0,5.618249774E-1,3.603875041E-1
1.631086301E0,-1.512912512E0,5.215374827E-1,2.919124961E-1
1.633529685E0,-1.467674971E0,4.336749911E-1,2.663374841E-1
1.635973070E0,-1.391912460E0,3.273875117E-1,2.173874974E-1
1.638416534E0,-1.278337479E0,2.308624983E-1,1.318625063E-1
1.640859921E0,-1.156100035E0,1.148125008E-1,5.128749833E-2
1.643303306E0,-1.046100020E0,-5.389999971E-2,3.781250119E-2
1.645746690E0,-9.497125149E-1,-2.725250125E-1,6.723749638E-2
1.648190304E0,-8.555250168E-1,-4.680500031E-1,5.623750016E-2
1.650633425E0,-7.517125010E-1,-5.938624740E-1,8.524999954E-3
1.653077039E0,-6.331874728E-1,-6.476249695E-1,-6.847500056E-2
1.655520425E0,-5.098500252E-1,-6.879125237E-1,-1.148125008E-1
1.657963810E0,-3.766124845E-1,-7.466250062E-1,-1.527625024E-1
1.660407195E0,-2.337500006E-1,-8.137249947E-1,-1.967625022E-1
1.662850579E0,-9.569999576E-2,-8.944374919E-1,-2.455749959E-1
1.665294039E0,4.977500066E-2,-9.505375028E-1,-3.042874932E-1
1.667737425E0,1.816374958E-1,-1.012825012E0,-3.396250010E-1
1.670180810E0,3.111625016E-1,-1.045825005E0,-3.738625050E-1
1.672624195E0,4.124999940E-1,-1.078824997E0,-3.933874965E-1
1.675067584E0,5.237374902E-1,-1.054487467E0,-4.141499996E-1
1.677510969E0,6.960250139E-1,-9.054374695E-1,-4.203374982E-1
1.679954354E0,8.841249943E-1,-7.379624844E-1,-3.823874891E-1
1.682397967E0,1.091887474E0,-5.901499987E-1,-3.066250086E-1
1.684841354E0,1.316562533E0,-4.813874960E-1,-2.125750035E-1
1.687284727E0,1.543849945E0,-4.362874925E-1,-1.270499974E-1
1.689728112E0,1.752712488E0,-4.545750022E-1,-4.771250114E-2
1.692171496E0,1.934762478E0,-5.168625116E-1,1.952499896E-2
1.694614956E0,2.089999914E0,-5.963374972E-1,8.181250095E-2
1.697058343E0,2.221862555E0,-6.561499834E-1,1.392875016E-1
1.699501708E0,2.329387426E0,-6.756749749E-1,1.893374920E-1
1.701945093E0,2.417387486E0,-6.598625183E-1,2.358125001E-1
1.704388477E0,2.494387388E0,-6.206749678E-1,2.638624907E-1
1.706831862E0,2.560387373E0,-5.803874731E-1,2.883374989E-1
1.709275475E0,2.622674942E0,-5.498625040E-1,3.041499853E-1
1.711718848E0,2.680012465E0,-5.413374901E-1,3.163875043E-1
1.714162233E0,2.724012375E0,-5.571500063E-1,3.273875117E-1
1.716605617E0,2.763062477E0,-6.048625112E-1,3.286249936E-1
1.719049002E0,2.792487383E0,-6.793875098E-1,3.298625052E-1
1.721492461E0,2.814487457E0,-7.721999884E-1,3.236750066E-1
1.723935771E0,2.825487375E0,-8.784874678E-1,3.176249862E-1
1.726379231E0,2.823012590E0,-9.847750068E-1,3.041499853E-1
1.728822617E0,2.805824995E0,-1.076487541E0,2.821500003E-1
1.731266002E0,2.770487547E0,-1.148537517E0,2.528625131E-1
1.733709629E0,2.722774982E0,-1.203537464E0,2.138125002E-1
1.736153016E0,2.666675091E0,-1.245062470E0,1.673374921E-1
1.738596401E0,2.606724977E0,-1.271875024E0,1.135749966E-1
1.741039785E0,2.546912432E0,-1.291399956E0,6.476250291E-2
1.743483170E0,2.483387470E0,-1.307350039E0,1.223750040E-2
1.745926568E0,2.417387486E0,-1.318349957E0,-3.299999982E-2
1.748369953E0,2.346575022E0,-1.319587469E0,-7.452499866E-2
1.750813413E0,2.268337488E0,-1.302399993E0,-1.135749966E-1
1.753256799E0,2.184050083E0,-1.270637512E0,-1.490499973E-1
1.755700184E0,2.093575001E0,-1.215637445E0,-1.808124930E-1
1.758143592E0,2.002000093E0,-1.138774991E0,-2.028124928E-1
1.760586977E0,1.906712532E0,-1.041012526E0,-2.198625058E-1
1.763030362E0,1.808949947E0,-9.274374843E-1,-2.285249978E-1
1.765473746E0,1.712424994E0,-8.039624691E-1,-2.272875011E-1
1.767917360E0,1.614662528E0,-6.756749749E-1,-2.162874937E-1
1.770360765E0,1.518137455E0,-5.461499691E-1,-1.918125004E-1
1.772804150E0,1.430274963E0,-4.178625047E-1,-1.575749964E-1
1.775247535E0,1.347224951E0,-2.895750105E-1,-1.160499975E-1
1.777690994E0,1.268987536E0,-1.601874977E-1,-7.328750193E-2
1.780134381E0,1.191987514E0,-3.547500074E-2,-2.571249940E-2
1.782577780E0,1.117462516E0,7.933750004E-2,2.199999988E-2
1.785021165E0,1.040462494E0,1.733874977E-1,6.599999964E-2
1.787464550E0,9.648374915E-1,2.369125038E-1,1.075249985E-1
1.789907934E0,8.938875198E-1,2.771999836E-1,1.428624988E-1
1.792351548E0,8.303624988E-1,2.881999910E-1,1.758625060E-1
1.794794915E0,7.693125010E-1,2.699125111E-1,2.015749961E-1
1.797238300E0,7.143124938E-1,2.308624983E-1,2.248124927E-1
1.799681759E0,6.605499983E-1,1.783374995E-1,2.406249940E-1
1.802125069E0,6.055499911E-1,1.220999956E-1,2.528625131E-1
1.804568529E0,5.457375050E-1,5.857500061E-2,2.613874972E-1
1.807011838E0,4.797374904E-1,-3.712499980E-3,2.626250088E-1
1.809455298E0,4.052124918E-1,-6.242499873E-2,2.651000023E-1
1.811898685E0,3.246375024E-1,-1.271875054E-1,2.626250088E-1
1.814342069E0,2.366375029E-1,-2.041874975E-1,2.675749958E-1
1.816785454E0,1.450625062E-1,-2.957625091E-1,2.773374915E-1
1.819229086E0,5.087500066E-2,-3.983374834E-1,2.980999947E-1
1.821672473E0,-4.441250116E-2,-5.120499730E-1,3.273875117E-1
1.824115857E0,-1.432749927E-1,-6.304374933E-1,3.664374948E-1
1.826559242E0,-2.532750070E-1,-7.379624844E-1,4.104374945E-1
1.829002627E0,-3.718000054E-1,-8.149625063E-1,4.617249966E-1
1.831445992E0,-5.048999786E-1,-8.529124856E-1,5.179625154E-1
1.833889452E0,-6.478999853E-1,-8.442500234E-1,5.680124760E-1
1.836332838E0,-8.006625175E-1,-8.064374924E-1,6.230124831E-1
1.838776223E0,-9.582374692E-1,-7.539125085E-1,6.755374670E-1
1.841219608E0,-1.117050052E0,-6.964374781E-1,7.293000221E-1
1.843663011E0,-1.270912528E0,-6.536750197E-1,7.830625176E-1
1.846106625E0,-1.416387439E0,-6.353874803E-1,8.430125117E-1
1.848550011E0,-1.545912504E0,-6.426749825E-1,9.113500118E-1
1.850993396E0,-1.659487486E0,-6.756749749E-1,9.846374989E-1
1.853436766E0,-1.760825038E0,-7.331500053E-1,1.054350019E0
1.855880150E0,-1.847587466E0,-8.149625063E-1,1.112925053E0
1.858323610E0,-1.928300023E0,-9.164375067E-1,1.161875010E0
1.860766996E0,-2.007637501E0,-1.022724986E0,1.205875039E0
1.863210381E0,-2.106637478E0,-1.124062538E0,1.276687503E0
1.865653771E0,-2.253212452E0,-1.199825048E0,1.401262522E0
1.868097155E0,-2.456024885E0,-1.229112506E0,1.610262513E0
1.870540540E0,-2.662549973E0,-1.154587507E0,1.878937483E0
1.872984153E0,-2.809124947E0,-8.516749740E-1,2.145274878E0
1.875427540E0,-2.901937485E0,-3.042874932E-1,2.311512470E0
1.877870944E0,-2.975224972E0,3.957250118E-1,2.326087475E0
1.880314329E0,-3.032700062E0,1.147024989E0,2.208800077E0
1.882757789E0,-3.072987556E0,1.853224993E0,2.016987562E0
1.885201098E0,-3.091274977E0,2.421375036E0,1.793412447E0
1.887644558E0,-3.092512369E0,2.774475098E0,1.566262484E0
1.890087950E0,-3.076699972E0,2.880762577E0,1.360975027E0
1.892531334E0,-3.032700062E0,2.759762526E0,1.191162467E0
1.894974719E0,-2.950749874E0,2.455475092E0,1.040874958E0
1.897418332E0,-2.828649998E0,2.027987480E0,8.820624948E-1
1.899861719E0,-2.668600082E0,1.542887449E0,6.927250028E-1
1.902305113E0,-2.493837595E0,1.044450045E0,4.641999900E-1
1.904748498E0,-2.316737413E0,5.399624705E-1,2.333374918E-1
1.907191883E0,-1.011999965E0,-2.149125099E0,6.364874840E-1
1.909635267E0,1.040462494E0,-5.018887520E0,1.943699956E0
1.912078727E0,1.248224974E0,-4.321350098E0,1.816650033E0
1.914522132E0,8.413624763E-1,-2.460562468E0,9.798250198E-1
1.916965517E0,4.541625082E-1,-7.869125009E-1,1.856250018E-1
1.919408902E0,2.513499856E-1,3.944875002E-1,-1.747625023E-1
1.921852515E0,9.866999984E-1,-5.513750017E-2,4.299624860E-1
1.924295902E0,1.854187489E0,-6.073374748E-1,1.012825012E0
1.926739281E0,1.796712518E0,2.881999910E-1,7.720624804E-1
1.929182666E0,1.624424934E0,1.126262546E0,4.972000122E-1
1.931626051E0,1.413087487E0,1.704174995E0,3.799124956E-1
1.934069435E0,1.446087480E0,1.707887530E0,6.377249956E-1
1.936512895E0,1.835899949E0,1.105499983E0,1.161875010E0
1.938956266E0,1.915237546E0,1.076212525E0,1.046924949E0
1.941399651E0,1.766187549E0,1.390262485E0,6.327750087E-1
1.943843036E0,1.617137432E0,1.558837533E0,2.773374915E-1
1.946286420E0,1.488849998E0,1.564887524E0,1.952499896E-2
1.948729805E0,1.481562495E0,1.313262463E0,5.857500061E-2
1.951173385E0,1.672137499E0,7.378249764E-1,3.799124956E-1
1.953616772E0,1.745424986E0,3.944875002E-1,3.799124956E-1
1.956060156E0,1.658662438E0,3.419624865E-1,1.551000029E-1
1.958503541E0,1.551137447E0,3.382500112E-1,-5.499999970E-2
1.960947001E0,1.430274963E0,3.614875078E-1,-1.820500046E-1
1.963390290E0,1.309275031E0,3.994374871E-1,-2.748624980E-1
1.965833750E0,1.237224936E0,3.944875002E-1,-1.380500048E-1
1.968277136E0,1.289749980E0,2.441999912E-1,2.308624983E-1
1.970720521E0,1.292225003E0,2.589125037E-1,4.569124877E-1
1.973163906E0,1.160225034E0,5.607249737E-1,3.726249933E-1
1.975607519E0,9.721249938E-1,9.784500003E-1,2.248124927E-1
1.978050906E0,8.205999732E-1,1.334025025E0,2.358125001E-1
1.980494290E0,7.155500054E-1,1.594174981E0,4.201999903E-1
1.982937675E0,6.129750013E-1,1.856937528E0,6.927250028E-1
1.985381075E0,5.359749794E-1,2.016987562E0,8.050624728E-1
1.987824459E0,3.905000091E-1,2.271087408E0,7.330124974E-1
1.990267919E0,1.865874976E-1,2.592424870E0,6.120125055E-1
1.992711305E0,1.801249944E-2,2.791524887E0,5.669124722E-1
1.995154690E0,-3.464999795E-2,2.751237392E0,6.230124831E-1
1.997598312E0,-5.224999972E-3,2.604525089E0,7.550125122E-1
2.000041468E0,-6.517499685E-2,2.638762474E0,8.222500086E-1
2.002485082E0,-2.373249978E-1,2.888050079E0,7.660124898E-1
2.004928468E0,-7.699999809E-1,2.363899946E0,5.461499691E-1
2.007371853E0,-1.710775018E0,-1.467124969E-1,4.166249931E-1
2.009815218E0,-9.252374768E-1,-3.678124845E-1,7.525374889E-1
2.012258678E0,-6.931374669E-1,1.098624989E-1,6.547750235E-1
2.014702065E0,-9.472374916E-1,2.014375031E-1,2.723875046E-1
2.017145449E0,-6.771875024E-1,5.240125060E-1,1.600500047E-1
2.019588834E0,-7.249000072E-1,2.784374952E-1,3.423750028E-2
2.022032238E0,-6.198499799E-1,2.441999912E-1,-7.081250101E-2
2.024475622E0,-5.746124983E-1,3.737249970E-1,-2.028124928E-1
2.026919007E0,-7.077124715E-1,3.664374948E-1,-3.591499925E-1
2.029362620E0,-6.221874952E-1,4.127750099E-1,-4.300999939E-1
2.031806007E0,-5.990874767E-1,1.563374996E-1,-5.009124875E-1
2.034249391E0,-6.417124867E-1,-3.423750028E-2,-5.852000117E-1
2.036692776E0,-5.696625113E-1,6.957499683E-2,-6.072000265E-1
2.039136161E0,-5.501375198E-1,2.979624867E-1,-6.414374709E-1
2.041579545E0,-4.926624894E-1,4.922499955E-1,-6.634374857E-1
2.044023005E0,-3.180375099E-1,3.151499927E-1,-6.132500172E-1
2.046466396E0,-2.264624983E-1,1.135749966E-1,-5.351499915E-1
2.048909781E0,-2.642749846E-1,2.857249975E-1,-4.728625119E-1
2.051353394E0,-3.338499963E-1,4.922499955E-1,-4.006749988E-1
2.053796781E0,-3.265624940E-1,5.410624743E-1,-2.395250052E-1
2.056240166E0,-3.680875003E-1,5.252500176E-1,-8.799999952E-2
2.058683545E0,-3.755125105E-1,6.938250065E-1,5.376249924E-2
2.061126930E0,-3.900874853E-1,8.135874867E-1,1.758625060E-1
2.063570315E0,-3.583250046E-1,7.928249836E-1,2.688125074E-1
2.066013774E0,-2.947999835E-1,6.217749715E-1,3.689124882E-1
2.068457161E0,-3.937999904E-1,7.073000073E-1,3.848625124E-1
2.070900754E0,-3.790875077E-1,8.501625061E-1,4.446749985E-1
2.073343910E0,-3.315125108E-1,8.306375146E-1,4.996750057E-1
2.075787523E0,-2.617999911E-1,8.673499823E-1,5.790125132E-1
2.078230679E0,-2.557500005E-1,9.772124887E-1,6.609625220E-1
2.080674293E0,-2.459875047E-1,1.340075016E0,8.100125194E-1
2.083117679E0,-2.703250051E-1,1.586887479E0,9.895874858E-1
2.085561064E0,-3.755125105E-1,2.004750013E0,1.182637453E0
2.088004523E0,-4.377999902E-1,2.306425095E0,1.422024965E0
2.090447910E0,-6.186124682E-1,2.279612541E0,1.607787490E0
2.092891295E0,-7.469000220E-1,2.696237564E0,1.837412477E0
2.095334669E0,-7.321875095E-1,3.090862513E0,1.905887485E0
2.097778054E0,3.294500113E-1,2.611949921E0,-3.238124847E-1
2.100221438E0,2.528625011E0,-1.387925029E0,-4.569124877E-1
2.102665052E0,1.879762530E0,-2.243175030E0,-2.602874935E-1
2.105108438E0,1.309275031E0,-1.148537517E0,-5.729625225E-1
2.107551795E0,6.470749974E-1,-3.750999868E-1,-5.009124875E-1
2.109995180E0,3.636874855E-1,-2.187625021E-1,-4.630999863E-1
2.112438564E0,3.454000056E-1,-4.118124843E-1,-2.162874937E-1
2.114881949E0,2.439250052E-1,-6.048625112E-1,2.804999985E-2
2.117325409E0,9.735000134E-2,-4.521000087E-1,4.152499884E-2
2.119768799E0,-1.622499898E-2,-4.042499885E-2,8.181250095E-2
2.122212184E0,-5.046249926E-2,-7.947500050E-2,8.676250279E-2
2.124655797E0,-2.241249941E-2,-6.847500056E-2,6.599999964E-2
2.127099184E0,4.235000163E-2,-8.662499487E-3,7.452499866E-2
2.129542568E0,9.735000134E-2,1.061500013E-1,2.199999988E-2
2.131985958E0,1.548250020E-1,1.538625062E-1,5.623750016E-2
2.134429343E0,1.291124970E-1,-5.623750016E-2,-2.076249942E-2
2.136872727E0,8.635000139E-2,-8.318749815E-2,-4.647500068E-2
2.139316187E0,7.053750008E-2,-7.466249913E-2,-8.524999954E-3
2.141759573E0,4.977500066E-2,-9.295000136E-2,-8.524999954E-3
2.144202963E0,7.658749819E-2,-7.095000148E-2,3.904999793E-2
2.146646348E0,7.535000145E-2,-1.186624989E-1,2.928750031E-2
2.149089961E0,8.511249721E-2,-1.442375034E-1,8.428750187E-2
2.151533348E0,7.658749819E-2,-7.947500050E-2,1.000999957E-1
2.153976732E0,6.435000151E-2,-4.771250114E-2,8.676250279E-2
2.156420117E0,9.735000134E-2,-6.971249729E-2,6.723749638E-2
2.158863576E0,1.278750002E-1,-1.087625027E-1,9.762499481E-3
2.161306963E0,1.755875051E-1,-1.564749926E-1,-1.952499896E-2
2.163750348E0,2.073500007E-1,-1.209999993E-1,-1.952499896E-2
2.166193722E0,2.195875049E-1,-9.899999946E-2,1.471249945E-2
2.168637107E0,2.353999913E-1,-1.051874980E-1,3.904999793E-2
2.171080492E0,2.195875049E-1,-3.918749839E-2,4.881250113E-2
2.173524105E0,2.121624947E-1,1.086249948E-2,7.081250101E-2
2.175967492E0,1.803999990E-1,-1.347499993E-2,7.452499866E-2
2.178410862E0,1.548250020E-1,-1.113750041E-2,7.823749632E-2
2.180854247E0,1.583999991E-1,-7.424999960E-3,4.028749838E-2
2.183297631E0,1.633500010E-1,6.049999967E-3,7.287499961E-3
2.185741016E0,1.913999915E-1,-1.347499993E-2,-2.076249942E-2
2.188184461E0,2.036374956E-1,-2.474999987E-3,-4.276249930E-2
2.190627847E0,2.158749998E-1,2.309999987E-2,-2.928750031E-2
2.193071232E0,2.061125040E-1,3.904999793E-2,-4.276249930E-2
2.195514616E0,2.061125040E-1,2.186249942E-2,-3.547500074E-2
2.197958230E0,2.231625021E-1,3.533750027E-2,-4.399999976E-2
2.200401406E0,2.305874974E-1,5.857500061E-2,-5.128749833E-2
2.202845019E0,2.085874975E-1,6.338749826E-2,-5.128749833E-2
2.205288406E0,1.596374959E-1,4.262499884E-2,-4.647500068E-2
2.207731790E0,1.046374962E-1,5.486249924E-2,-3.052499890E-2
2.210175250E0,5.087500066E-2,6.215000153E-2,-1.718750037E-2
2.212618617E0,-1.622499898E-2,5.238749832E-2,1.704999991E-2
2.215062001E0,-4.193750024E-2,2.557500079E-2,4.881250113E-2
2.217505386E0,-4.675000161E-2,-3.712499980E-3,6.228749827E-2
2.219948770E0,-4.193750024E-2,-3.313750029E-2,6.476250291E-2
2.222392155E0,-3.217500076E-2,-1.471249945E-2,6.228749827E-2
2.224835783E0,-2.474999987E-2,-4.949999973E-3,4.028749838E-2
2.227279170E0,-2.887499984E-3,-2.447500080E-2,1.237499993E-3
2.229722630E0,3.258749843E-2,-3.423750028E-2,-3.052499890E-2
2.232166016E0,7.782500237E-2,-4.413750023E-2,-5.499999970E-2
2.234609401E0,1.254000068E-1,-5.747500062E-2,-6.847500056E-2
2.237052794E0,1.731124967E-1,-6.971249729E-2,-5.252499878E-2
2.239496179E0,2.036374956E-1,-3.671250120E-2,-5.128749833E-2
2.241939564E0,2.073500007E-1,4.812499974E-3,-4.276249930E-2
2.244383177E0,1.889249980E-1,2.928750031E-2,-3.299999982E-2
2.246826564E0,1.841125041E-1,6.338749826E-2,-7.287499961E-3
2.249269943E0,2.036374956E-1,4.881250113E-2,1.347499993E-2
2.251713328E0,2.341624945E-1,4.386249930E-2,9.762499481E-3
2.254156713E0,2.806375027E-1,5.981250107E-2,1.581249945E-2
2.256600097E0,3.282124996E-1,7.315000147E-2,7.287499961E-3
2.259043557E0,3.649249971E-1,8.057499677E-2,-1.099999994E-2
2.261486954E0,3.819749951E-1,1.049124971E-1,-4.399999976E-2
2.263930339E0,4.089249969E-1,1.684374958E-1,-7.204999775E-2
2.266373952E0,4.552625120E-1,2.626250088E-1,-1.099999994E-1
2.268817108E0,5.224999785E-1,3.859624863E-1,-1.527625024E-1
2.271260722E0,6.055499911E-1,5.313000083E-1,-1.967625022E-1
2.273704113E0,6.642624736E-1,6.913499832E-1,-2.528625131E-1
2.276147498E0,6.886000037E-1,8.073999882E-1,-2.980999947E-1
2.278590882E0,6.837875247E-1,8.538749814E-1,-3.163875043E-1
2.281034342E0,6.434999704E-1,7.598249912E-1,-2.870999873E-1
2.283477729E0,5.517874956E-1,5.387250185E-1,-2.150499970E-1
2.285921113E0,4.736874998E-1,2.039124966E-1,-9.652499855E-2
2.288364498E0,4.870249927E-1,-5.389999971E-2,3.712499980E-3
2.290807882E0,5.725499988E-1,1.333750039E-2,3.299999982E-2
2.293251496E0,6.337375045E-1,-1.966249943E-2,3.657500073E-2
2.295694882E0,6.752625108E-1,-1.374999993E-4,1.704999991E-2
2.298138281E0,7.082625031E-1,-8.662499487E-3,-2.474999987E-3
2.300581666E0,7.277874947E-1,-1.594999991E-2,-2.199999988E-2
2.303025125E0,7.510250211E-1,-2.571249940E-2,-4.647500068E-2
2.305468435E0,7.815499902E-1,-4.647500068E-2,-5.747500062E-2
2.307911895E0,8.205999732E-1,-4.647500068E-2,-6.599999964E-2
2.310355267E0,8.548374772E-1,-3.189999983E-2,-6.847500056E-2
2.312798652E0,8.718875051E-1,-7.424999960E-3,-8.181250095E-2
2.315242265E0,8.670749664E-1,2.062499896E-2,-1.050499976E-1
2.317685652E0,8.683124781E-1,8.662500232E-2,-1.343374997E-1
2.320129036E0,9.208375216E-1,2.686749995E-1,-1.502874941E-1
2.322572416E0,1.008700013E0,6.352499723E-1,-1.552374959E-1
2.325015801E0,8.157874942E-1,6.950625181E-1,-1.808124930E-1
2.327459260E0,4.760249853E-1,5.007749796E-1,-1.698125005E-1
2.329902647E0,5.102624893E-1,1.000450015E0,-1.588124931E-1
2.332346031E0,3.441624939E-1,1.138499975E0,-1.392875016E-1
2.334789449E0,3.796375096E-1,1.270499945E0,-7.699999958E-2
2.337232834E0,2.329249978E-1,1.441550016E0,-2.076249942E-2
2.339676218E0,9.858749807E-2,1.800699949E0,6.104999781E-2
2.342119832E0,-5.293750018E-2,2.141562462E0,1.380500048E-1
2.344563218E0,-2.495625019E-1,2.525187492E0,2.076250017E-1
2.347006608E0,-4.365625083E-1,2.814762592E0,2.858625054E-1
2.349449993E0,-6.661875248E-1,3.078624964E0,3.933874965E-1
2.351893377E0,-8.799999952E-1,3.512300014E0,4.434374869E-1
2.354336837E0,-1.023000002E0,3.894687414E0,5.143874884E-1
2.356780223E0,-1.173287511E0,4.087737560E0,6.169624925E-1
2.359223608E0,-1.263625026E0,4.241737366E0,6.975374818E-1
2.361667221E0,-1.290575027E0,4.315024853E0,8.245875239E-1
2.364110608E0,-1.465199947E0,4.401787281E0,1.017637491E0
2.366553993E0,-1.520200014E0,4.660699844E0,1.076349974E0
2.368997377E0,-1.542199969E0,4.708412647E0,1.117874980E0
2.371440762E0,-1.671725035E0,4.393125057E0,1.248637438E0
2.373884146E0,-1.429725051E0,4.545887470E0,1.045825005E0
2.376327606E0,-1.102337480E0,5.179900169E0,6.535375118E-1
2.378770993E0,-9.044749737E-1,5.278900146E0,1.538625062E-1
2.381214606E0,-1.062049985E0,3.974162579E0,1.368124932E-1
2.383657777E0,-9.850500226E-1,3.104337454E0,3.078624904E-1
2.386101390E0,-6.699000001E-1,2.891624928E0,3.018124998E-1
2.388544777E0,-3.900874853E-1,2.550899982E0,2.931500077E-1
2.390988161E0,-2.483250052E-1,1.884987473E0,4.056249857E-1
2.393431531E0,-8.222500235E-2,1.520887494E0,4.519625008E-1
2.395874991E0,7.535000145E-2,1.402362466E0,4.299624860E-1
2.398318377E0,1.266375035E-1,1.195974946E0,4.386250079E-1
2.400761762E0,1.083500013E-1,1.039637446E0,4.251500070E-1
2.403205146E0,7.658749819E-2,1.017637491E0,3.946250081E-1
2.405648545E0,7.535000145E-2,1.188687444E0,2.931500077E-1
2.408092159E0,2.282499894E-2,1.265550017E0,2.381500006E-1
2.410535545E0,-7.369999588E-2,1.246024966E0,2.272875011E-1
2.412978930E0,-9.446249902E-2,1.431787491E0,1.856250018E-1
2.415422314E0,-1.237500012E-1,1.539312482E0,1.698125005E-1
2.417865685E0,-1.592250019E-1,1.589362502E0,1.795749962E-1
2.420309145E0,-1.727000028E-1,1.671175003E0,1.978625059E-1
2.422752531E0,-1.750375032E-1,1.757937431E0,2.076250017E-1
2.425195916E0,-1.970375031E-1,1.785987496E0,2.381500006E-1
2.427639300E0,-2.044624984E-1,1.845937490E0,2.455749959E-1
2.430082900E0,-2.398000062E-1,1.860512495E0,2.773374915E-1
2.432526286E0,-2.605625093E-1,1.922937512E0,3.078624904E-1
2.434969671E0,-2.765125036E-1,2.026750088E0,3.286249936E-1
2.437413056E0,-2.800875008E-1,2.159849882E0,3.518624902E-1
2.439856440E0,-2.887499928E-1,2.305325031E0,3.738625050E-1
2.442299900E0,-3.155624866E-1,2.427424908E0,4.178625047E-1
2.444743286E0,-3.278000057E-1,2.595999956E0,4.483875036E-1
2.447186671E0,-3.583250046E-1,2.727999926E0,5.044875145E-1
2.449630056E0,-3.766124845E-1,2.875812531E0,5.571500063E-1
2.452073440E0,-3.840374947E-1,3.016337395E0,5.986750126E-1
2.454517063E0,-3.815625012E-1,3.118912458E0,6.327750087E-1
2.456960449E0,-3.510375023E-1,3.194674969E0,6.327750087E-1
2.459403834E0,-2.985124886E-1,3.200725079E0,6.144874692E-1
2.461847293E0,-2.227499932E-1,3.153150082E0,5.704874992E-1
2.464290680E0,-1.592250019E-1,3.017575026E0,5.449125171E-1
2.466734070E0,-9.322500229E-2,2.890525103E0,4.996750057E-1
2.469177454E0,-4.317500070E-2,2.779287577E0,4.409624934E-1
2.471620839E0,-2.241249941E-2,2.665712595E0,4.019125104E-1
2.474064452E0,1.058750041E-2,2.570425034E0,3.823874891E-1
2.476507839E0,5.458749831E-2,2.499475002E0,3.763374984E-1
2.478951234E0,9.611249715E-2,2.448187590E0,3.763374984E-1
2.481394618E0,1.413500011E-1,2.409137487E0,3.701499999E-1
2.483838003E0,2.023999989E-1,2.391949892E0,3.481499851E-1
2.486281462E0,2.586374879E-1,2.338325024E0,3.213374913E-1
2.488724849E0,2.964499891E-1,2.242899895E0,3.041499853E-1
2.491168219E0,3.416875005E-1,2.142800093E0,2.809124887E-1
2.493611603E0,4.101625085E-1,2.071987391E0,2.503874898E-1
2.496054988E0,4.699749947E-1,1.969274998E0,2.235749960E-1
2.498498601E0,5.262125134E-1,1.865462542E0,2.063875049E-1
2.500941988E0,5.860249996E-1,1.781175017E0,1.856250018E-1
2.503385373E0,6.360750198E-1,1.684649944E0,1.673374921E-1
2.505828757E0,6.898375154E-1,1.625937462E0,1.515250057E-1
2.508272217E0,7.473124862E-1,1.589362502E0,1.465750039E-1
2.510715526E0,8.120750189E-1,1.564887524E0,1.563374996E-1
2.513158991E0,8.780750036E-1,1.546599984E0,1.710499972E-1
2.515602378E0,9.378874898E-1,1.512362480E0,1.978625059E-1
2.518045991E0,9.976999760E-1,1.468362451E0,2.235749960E-1
2.520489378E0,1.055174947E0,1.414600015E0,2.235749960E-1
2.522932762E0,1.103987455E0,1.335262537E0,1.966249943E-1
2.525376127E0,1.128462553E0,1.213024974E0,1.710499972E-1
2.527819511E0,1.165174961E0,1.175212502E0,1.258125007E-1
2.530262896E0,1.157750010E0,1.104262471E0,-1.828750037E-2
2.532706356E0,9.623624682E-1,7.145875096E-1,-2.418625057E-1
2.535149742E0,1.033174992E0,6.583499908E-1,9.528750181E-2
2.537593366E0,8.780750036E-1,6.620625257E-1,-1.282874942E-1
2.540036752E0,8.878374696E-1,6.950625181E-1,-3.713875115E-1
2.542480137E0,6.617875099E-1,1.648624986E-1,-4.728625119E-1
2.544923521E0,2.831124961E-1,4.812499974E-3,-4.373874962E-1
2.547366906E0,-1.127500013E-1,5.609999970E-2,-3.678124845E-1
2.549810305E0,-4.158000052E-1,-1.374999993E-4,-2.870999873E-1
2.552253764E0,-6.491374969E-1,-4.647500068E-2,-2.272875011E-1
2.554697151E0,-7.566624880E-1,-2.089999989E-2,-1.930499971E-1
2.557140535E0,-7.994250059E-1,-2.213750035E-2,-2.370499969E-1
2.559583920E0,-7.834749818E-1,-1.718750037E-2,-2.626250088E-1
2.562027310E0,-7.346624732E-1,-6.723749638E-2,-2.443374991E-1
2.564470923E0,-6.784250140E-1,-5.995000154E-2,-2.248124927E-1
2.566914310E0,-6.576625109E-1,-4.647500068E-2,-1.880999953E-1
2.569357694E0,-6.833750010E-1,-2.447500080E-2,-1.710499972E-1
2.571801079E0,-7.627124786E-1,-3.313750029E-2,-1.649999917E-1
2.574244450E0,-8.837124705E-1,-6.599999964E-2,-1.918125004E-1
2.576687909E0,-1.023000002E0,-7.823749632E-2,-2.003374994E-1
2.579131296E0,-1.154862523E0,-1.076624990E-1,-2.015749961E-1
2.581574909E0,-1.267337441E0,-1.589500010E-1,-1.991000026E-1
2.584018065E0,-1.351624966E0,-1.809500009E-1,-1.967625022E-1
2.586461692E0,-1.407724977E0,-1.821874976E-1,-2.150499970E-1
2.588905079E0,-1.474962473E0,-1.832875013E-1,-2.320999950E-1
2.591348464E0,-1.521437526E0,-1.942874938E-1,-2.565749884E-1
2.593791923E0,-1.547012448E0,-2.004749924E-1,-2.688125074E-1
2.596235310E0,-1.550724983E0,-2.162874937E-1,-2.663374841E-1
2.598678685E0,-1.542199969E0,-2.542375028E-1,-2.700499892E-1
2.601122070E0,-1.518962502E0,-2.835249901E-1,-2.725250125E-1
2.603565455E0,-1.493250012E0,-2.945249975E-1,-2.980999947E-1
2.606008839E0,-1.488437533E0,-2.957625091E-1,-3.383874893E-1
2.608452453E0,-1.500674963E0,-2.860000134E-1,-4.093374908E-1
2.610895858E0,-1.523912549E0,-2.872374952E-1,-4.728625119E-1
2.613339318E0,-1.545912504E0,-2.785750031E-1,-5.241500139E-1
2.615782704E0,-1.445675015E0,-1.051874980E-1,-4.838624895E-1
2.618226089E0,-1.421200037E0,2.088624984E-1,-3.910500109E-1
2.620669474E0,-1.456674933E0,1.941500008E-1,-3.555749953E-1
2.623112863E0,-1.450487494E0,1.380500048E-1,-3.152875006E-1
2.625556477E0,-1.472487450E0,1.073874980E-1,-3.066250086E-1
2.627999863E0,-1.483487487E0,1.220999956E-1,-2.968625128E-1
2.630443248E0,-1.501912475E0,1.355749965E-1,-2.957625091E-1
2.632886633E0,-1.516487479E0,1.660999954E-1,-3.115749955E-1
2.635330021E0,-1.542199969E0,1.648624986E-1,-2.993375063E-1
2.637773481E0,-1.549487472E0,6.104999781E-2,-2.700499892E-1
2.640216867E0,-1.455437541E0,-1.967625022E-1,-1.905750036E-1
2.642660252E0,-1.286862493E0,-2.395250052E-1,-7.328750193E-2
2.645103637E0,-1.102337480E0,-2.370499969E-1,4.152499884E-2
2.647547016E0,-9.312874675E-1,-2.395250052E-1,1.160499975E-1
2.649990401E0,-7.957124710E-1,-2.187625021E-1,1.380500048E-1
2.652434014E0,-7.089499831E-1,-1.882375032E-1,1.392875016E-1
2.654877401E0,-6.601374745E-1,-1.662375033E-1,1.490499973E-1
2.657320785E0,-6.393749714E-1,-1.759999990E-1,2.149125040E-1
2.659764231E0,-6.539499760E-1,-2.212374955E-1,3.298625052E-1
2.662207618E0,-6.919000149E-1,-2.517625093E-1,4.446749985E-1
2.664651002E0,-7.529500127E-1,-2.517625093E-1,5.704874992E-1
2.667094387E0,-8.029999733E-1,-2.565749884E-1,6.510624886E-1
2.669538000E0,-8.226624727E-1,-2.285249978E-1,6.632999778E-1
2.671981382E0,-7.957124710E-1,-1.295250058E-1,6.535375118E-1
2.674424767E0,-7.492374778E-1,-7.342500240E-2,6.377249956E-1
2.676868151E0,-7.077124715E-1,-5.747500062E-2,6.377249956E-1
2.679311536E0,-6.527125239E-1,-1.347499993E-2,6.193000078E-1
2.681754995E0,-5.868499875E-1,4.386249930E-2,5.582500100E-1
2.684198392E0,-5.183749795E-1,5.609999970E-2,4.874374866E-1
2.686641777E0,-4.500375092E-1,6.710000336E-2,4.384875000E-1
2.689085161E0,-3.950375021E-1,4.386249930E-2,3.921499848E-1
2.691528775E0,-3.315125108E-1,-8.662499487E-3,3.506250083E-1
2.693972175E0,-2.802250087E-1,-4.166249931E-2,3.249124885E-1
2.696415560E0,-2.557500005E-1,-1.718750037E-2,3.041499853E-1
2.698858944E0,-2.520374954E-1,3.176249936E-2,2.761000097E-1
2.701302404E0,-2.655124962E-1,1.135749966E-1,2.296250015E-1
2.703745791E0,-2.532750070E-1,2.381500006E-1,1.783374995E-1
2.706189194E0,-2.129874974E-1,2.881999910E-1,1.368124932E-1
2.708632579E0,-1.432749927E-1,2.431000024E-1,1.148125008E-1
2.711075963E0,-6.270000339E-2,1.758625060E-1,9.652499855E-2
2.713519577E0,1.182499994E-2,1.270499974E-1,8.057499677E-2
2.715962963E0,7.658749819E-2,1.013374999E-1,5.609999970E-2
2.718406343E0,1.241625026E-1,9.033749998E-2,4.757500067E-2
2.720849728E0,1.583999991E-1,1.025749967E-1,4.509999976E-2
2.723293112E0,1.743499935E-1,1.513874978E-1,4.881250113E-2
2.725736572E0,1.791625023E-1,2.198625058E-1,4.633750021E-2
2.728179959E0,1.889249980E-1,2.979624867E-1,4.276249930E-2
2.730623343E0,2.048749924E-1,3.689124882E-1,5.004999787E-2
2.733066728E0,2.183499932E-1,4.384875000E-1,4.633750021E-2
2.735510341E0,2.243999988E-1,5.350124836E-1,3.176249936E-2
2.737953728E0,2.073500007E-1,6.425374746E-1,6.049999967E-3
2.740397112E0,1.694000065E-1,7.683500051E-1,-2.323750034E-2
2.742840568E0,1.438249946E-1,8.966374993E-1,-5.018749833E-2
2.745283955E0,1.535875052E-1,9.663500190E-1,-6.352499872E-2
2.747727339E0,1.841125041E-1,1.027400017E0,-6.118749827E-2
2.750170724E0,2.293500006E-1,1.095737457E0,-3.671250120E-2
2.752614108E0,2.513499856E-1,1.178925037E0,-6.187499966E-3
2.755057731E0,2.646875083E-1,1.346262455E0,2.337499987E-3
2.757501117E0,2.574000061E-1,1.513599992E0,1.581249945E-2
2.759944577E0,2.304500043E-1,1.659075022E0,2.557500079E-2
2.762387887E0,2.011625022E-1,1.822700024E0,5.733750015E-2
2.764831346E0,1.986874938E-1,1.861750007E0,1.000999957E-1
2.767274738E0,1.951124966E-1,1.867937446E0,1.490499973E-1
2.769718122E0,1.938749999E-1,1.886224985E0,2.113374919E-1
2.772161507E0,1.681624949E-1,1.939987540E0,2.626250088E-1
2.774605120E0,1.658249944E-1,2.015749931E0,2.919124961E-1
2.777048276E0,1.461624950E-1,2.104987383E0,2.956250012E-1
2.779491876E0,1.315875053E-1,2.208800077E0,3.016749918E-1
2.781935262E0,1.205874979E-1,2.257612467E0,3.249124885E-1
2.784378722E0,9.611249715E-2,2.235612392E0,3.616249859E-1
2.786822108E0,7.535000145E-2,2.216087580E0,3.946250081E-1
2.789265493E0,5.953750014E-2,2.203850031E0,4.384875000E-1
2.791708887E0,1.306249946E-2,2.181849957E0,4.972000122E-1
2.794152271E0,-7.246249914E-2,2.186800003E0,5.546749830E-1
2.796595885E0,-1.640374959E-1,2.221037388E0,5.827249885E-1
2.799039271E0,-2.605625093E-1,2.214849949E0,5.864375234E-1
2.801482656E0,-3.583250046E-1,2.201512575E0,5.680124760E-1
2.803926036E0,-4.658499956E-1,2.233274937E0,5.339124799E-1
2.806369420E0,-6.258999705E-1,2.272325039E0,4.996750057E-1
2.808812880E0,-8.372374773E-1,2.333374977E0,4.824874997E-1
2.811256266E0,-1.059574962E0,2.446949959E0,4.691500068E-1
2.813699895E0,-1.269675016E0,2.577712536E0,4.544374943E-1
2.816143281E0,-1.450487494E0,2.685237408E0,4.349125028E-1
2.818586666E0,-1.663200021E0,2.671762466E0,4.276250005E-1
2.821030051E0,-1.828062534E0,2.594899893E0,4.201999903E-1
2.823473435E0,-1.944112539E0,2.410374880E0,4.043875039E-1
2.825916909E0,-1.940400004E0,2.302850008E0,3.738625050E-1
2.828360295E0,-1.773062468E0,2.431137562E0,2.980999947E-1
2.830803680E0,-1.207387447E0,3.648012400E0,2.557500079E-2
2.833247065E0,-1.034000039E0,3.607587576E0,-6.476250291E-2
2.835690449E0,-1.242862463E0,2.462899923E0,5.499999970E-2
2.838134063E0,-1.063287497E0,2.330899954E0,5.733750015E-2
2.840577449E0,-8.934749961E-1,2.073225021E0,6.104999781E-2
2.843020909E0,-8.544250131E-1,1.431787491E0,1.478125006E-1
2.845464295E0,-7.431874871E-1,1.056687474E0,2.125750035E-1
2.847907680E0,-6.088500023E-1,8.160625100E-1,2.528625131E-1
2.850351080E0,-4.915624857E-1,6.205375195E-1,2.858625054E-1
2.852794464E0,-4.083749950E-1,4.739624858E-1,3.041499853E-1
2.855237849E0,-3.265624940E-1,4.569124877E-1,3.103374839E-1
2.857681462E0,-2.508000135E-1,5.374875069E-1,2.809124887E-1
2.860124849E0,-2.239875048E-1,5.655375123E-1,2.406249940E-1
2.862568224E0,-2.067999989E-1,6.388249993E-1,1.930499971E-1
2.865011608E0,-1.737999916E-1,7.818250060E-1,1.295250058E-1
2.867455068E0,-1.629374921E-1,8.698250055E-1,6.710000336E-2
2.869898454E0,-1.640374959E-1,9.345874786E-1,8.524999954E-3
2.872341839E0,-1.727000028E-1,9.724000096E-1,-3.795000166E-2
2.874785210E0,-1.665125042E-1,1.035925031E0,-7.328750193E-2
2.877228594E0,-9.075000137E-2,1.243687510E0,-1.039500013E-1
2.879672208E0,-6.146249920E-2,1.269262552E0,-1.270499974E-1
2.882115594E0,4.064500034E-1,1.952224970E0,-1.612875015E-1
2.884559054E0,1.265275002E0,3.067625046E0,-2.883374989E-1
2.887002420E0,9.549375176E-1,2.126987457E0,-3.458124995E-1
2.889445805E0,8.560749888E-1,1.553887486E0,-3.726249933E-1
2.891889190E0,1.101650000E0,1.424499989E0,-4.874374866E-1
2.894332574E0,1.072224975E0,7.976375222E-1,-5.741999745E-1
2.896776188E0,1.090649962E0,2.491499931E-1,-6.267250180E-1
2.899219569E0,1.205462456E0,-1.490499973E-1,-7.037249804E-1
2.901662954E0,1.264037490E0,-6.499624848E-1,-7.452499866E-1
2.904106339E0,1.195700049E0,-1.097112536E0,-6.157249808E-1
2.906549723E0,7.668374777E-1,8.721625209E-1,2.956250012E-1
2.908993183E0,7.937874794E-1,4.842750072E0,1.114162445E0
2.911436574E0,7.277874947E-1,6.192725182E0,1.243687510E0
2.913879959E0,6.642624736E-1,4.841512680E0,8.087750077E-1
2.916323344E0,6.995999813E-1,3.210624933E0,3.176249862E-1
2.918766957E0,8.413624763E-1,2.001037598E0,-1.347499993E-2
2.921210344E0,6.434999704E-1,2.069512606E0,2.858625054E-1
2.923653714E0,6.215000153E-1,3.875162363E0,6.425374746E-1
2.926097174E0,4.967874885E-1,4.577650070E0,8.173000216E-1
2.928540483E0,5.285499692E-1,3.779875040E0,6.780124903E-1
2.930983943E0,5.897374749E-1,2.671762466E0,5.472499728E-1
2.933427320E0,5.542625189E-1,2.512949944E0,5.974375010E-1
2.935870933E0,4.809750021E-1,3.132387400E0,6.780124903E-1
2.938314320E0,3.356375098E-1,3.539249897E0,7.305374742E-1
2.940757704E0,2.781625092E-1,3.270437479E0,6.499624848E-1
2.943201089E0,2.561624944E-1,2.687712431E0,5.081999898E-1
2.945644487E0,1.498750001E-1,2.457949877E0,4.569124877E-1
2.948087947E0,5.087500066E-2,2.673000097E0,3.982000053E-1
2.950531334E0,-1.127500013E-1,2.652237415E0,3.774375021E-1
2.952974718E0,-2.080374956E-1,2.382324934E0,2.980999947E-1
2.955418103E0,-2.605625093E-1,1.975462437E0,2.271499932E-1
2.957861726E0,-3.095124960E-1,1.743362546E0,1.563374996E-1
2.960305113E0,-4.291374981E-1,1.760412455E0,1.490499973E-1
2.962748498E0,-4.707999825E-1,1.762887478E0,1.172875017E-1
2.965191882E0,-4.658499956E-1,1.474550009E0,1.098624989E-1
2.967635342E0,-4.951374829E-1,9.491624832E-1,1.050499976E-1
2.970078728E0,-5.330874920E-1,5.509625077E-1,7.809999585E-2
2.972522113E0,-5.819000006E-1,3.859624863E-1,1.952499896E-2
2.974965498E0,-6.258999705E-1,-4.647500068E-2,-3.671250120E-2
2.977409111E0,-2.545124888E-1,-2.620612383E0,1.828750037E-2
2.979852498E0,-2.802250087E-1,-1.606549978E0,1.868624985E-1
2.982295868E0,3.299999982E-3,-3.738625050E-1,2.259124964E-1
2.984739253E0,-8.717499673E-2,2.784374952E-1,2.479124963E-1
2.987182637E0,-4.377999902E-1,5.081999898E-1,5.252499878E-2
2.989626097E0,-7.859500051E-1,4.800125062E-1,-9.171249717E-2
2.992069484E0,-9.545249939E-1,5.607249737E-1,-1.685750037E-1
2.994512868E0,-1.025337458E0,5.777750015E-1,-1.955250055E-1
2.996956253E0,-1.015575051E0,6.230124831E-1,-2.138125002E-1
2.999399866E0,-8.531875014E-1,5.924875140E-1,-1.845249981E-1
3.001843253E0,-7.101874948E-1,5.007749796E-1,-1.772374958E-1
3.004286637E0,-5.574250221E-1,3.371500075E-1,-1.710499972E-1
3.006730082E0,-4.120875001E-1,2.088624984E-1,-1.502874941E-1
3.009173469E0,-2.997500002E-1,1.599124968E-1,-1.112374961E-1
3.011616853E0,-2.105125040E-1,1.806750000E-1,-5.499999970E-2
3.014060238E0,-2.227499932E-1,1.685750037E-1,-1.594999991E-2
3.016503851E0,-2.802250087E-1,1.648624986E-1,-3.712499980E-3
3.018947219E0,-3.790875077E-1,1.758625060E-1,2.199999988E-2
3.021390604E0,-4.718999863E-1,2.491499931E-1,7.809999585E-2
3.023833988E0,-5.586624742E-1,2.564375103E-1,1.453374922E-1
3.026277373E0,-6.331874728E-1,2.809124887E-1,2.173874974E-1
3.028720832E0,-6.699000001E-1,2.821500003E-1,2.943874896E-1
3.031164203E0,-7.053750157E-1,3.359124959E-1,3.261500001E-1
3.033607588E0,-7.064750195E-1,3.297249973E-1,3.579125106E-1
3.036051201E0,-6.796625257E-1,3.566749990E-1,3.554374874E-1
3.038494588E0,-6.441875100E-1,3.321999907E-1,3.628624976E-1
3.040937972E0,-5.794249773E-1,2.651000023E-1,3.676750064E-1
3.043381432E0,-5.268999934E-1,2.454375029E-1,3.811500072E-1
3.045824818E0,-4.890874922E-1,1.403875053E-1,3.823874891E-1
3.048268203E0,-4.523749948E-1,7.328750193E-2,3.726249933E-1
3.050711588E0,-4.108499885E-1,1.416250020E-1,3.701499999E-1
3.053154972E0,-4.096125066E-1,1.098624989E-1,3.542000055E-1
3.055598586E0,-3.315125108E-1,2.589125037E-1,2.956250012E-1
3.058041972E0,-3.425124884E-1,2.723875046E-1,3.310999870E-1
3.060485357E0,-3.645125031E-1,4.384875000E-1,5.399624705E-1
3.062928741E0,-5.000874996E-1,7.940624952E-1,6.829624772E-1
3.065372126E0,-8.531875014E-1,1.115399957E0,7.500625253E-1
3.067815586E0,-1.242862463E0,1.700600028E0,7.488250136E-1
3.070258972E0,-1.627725005E0,1.931462526E0,6.584874988E-1
3.072702357E0,-1.679012537E0,2.173325062E0,5.741999745E-1
3.075145741E0,-1.712012529E0,2.277137518E0,4.104374945E-1
3.077589370E0,-1.785300016E0,1.902174950E0,2.870999873E-1
3.080032756E0,-1.789012432E0,1.628412485E0,1.758625060E-1
3.082476141E0,-1.691249967E0,1.040874958E0,1.062875018E-1
3.084919601E0,-1.520200014E0,6.254875064E-1,7.204999775E-2
3.087362987E0,-1.327149987E0,6.095374823E-1,8.676250279E-2
3.089806367E0,-1.124337435E0,7.695875168E-1,1.403875053E-1
3.092249752E0,-8.604750037E-1,4.959625006E-1,1.636250019E-1
3.094693365E0,-6.356624961E-1,-2.260500044E-1,2.186249942E-1
3.097136752E0,-4.658499956E-1,-9.899999946E-3,3.616249859E-1
3.099580136E0,-3.766124845E-1,-1.809500009E-1,4.947249889E-1
3.102023511E0,-3.130874932E-1,-1.051874980E-1,6.120125055E-1
3.104466895E0,-3.009875119E-1,-1.747625023E-1,6.620625257E-1
3.106910355E0,-2.741749883E-1,-4.375250041E-1,6.767749786E-1
3.109353742E0,-8.978749812E-2,-6.903874874E-1,5.876749754E-1
3.111797126E0,1.790249944E-1,-8.564875126E-1,3.763374984E-1
3.114240740E0,1.802625060E-1,-7.257249951E-1,2.406249940E-1
3.116684126E0,-1.557874978E-1,-6.586250067E-1,3.396250010E-1
3.119127511E0,-3.463625014E-1,-4.985750020E-1,3.738625050E-1
3.121570970E0,-3.084124923E-1,-2.272875011E-1,3.506250083E-1
3.124014357E0,7.556999922E-1,8.893499970E-1,1.918125004E-1
3.126457752E0,1.092849970E0,1.734699965E0,5.044875145E-1
3.128901136E0,9.608500004E-1,2.064562559E0,8.783500195E-1
3.131344521E0,1.405662537E0,1.834937453E0,8.575875163E-1
3.133788134E0,1.583999991E0,1.184975028E0,7.081250101E-2
3.136231521E0,7.544624805E-1,9.063999653E-1,-6.206749678E-1
3.138674881E0,-6.835125089E-1,2.001999915E-1,-6.866750121E-1
3.141118266E0,-1.165999994E-1,1.192262530E0,-5.534374714E-1
3.143561726E0,2.547875047E-1,1.585649967E0,-6.109125018E-1
3.146005112E0,-6.187499762E-1,1.878937483E0,-6.499624848E-1
3.148448497E0,-8.020374775E-1,1.818987489E0,-6.304374933E-1
3.150891882E0,-3.878875077E-1,1.856937528E0,-4.434374869E-1
3.153335495E0,-4.782249928E-1,1.713937521E0,-3.811500072E-1
3.155778882E0,-5.209875107E-1,1.353549957E0,-3.151499927E-1
3.158222266E0,-1.618375033E-1,7.108749747E-1,-4.789125025E-1
3.160665651E0,-3.524124920E-1,4.129124880E-1,-7.684875131E-1
3.163109105E0,-1.813624948E-1,1.856250018E-1,-6.499624848E-1
3.165552492E0,3.024999984E-3,3.174875081E-1,-5.852000117E-1
3.167995877E0,-3.695999980E-1,-8.689999580E-2,-7.074375153E-1
3.170439261E0,-4.244624972E-1,-2.272875011E-1,-7.074375153E-1
3.172882875E0,-8.007999659E-1,7.562500238E-2,-6.694874763E-1
3.175326266E0,-9.461374879E-1,9.624999948E-3,-6.426749825E-1
3.177769651E0,-9.693750143E-1,3.781250119E-2,-5.814874768E-1
3.180213035E0,-1.081850052E0,5.609999970E-2,-4.508624971E-1
3.182656495E0,-1.057374954E0,1.704999991E-2,-3.726249933E-1
3.185099882E0,-9.730874896E-1,1.220999956E-1,-3.066250086E-1
3.187543251E0,-8.557999730E-1,2.001999915E-1,-2.235749960E-1
3.189986865E0,-7.788000107E-1,2.308624983E-1,-2.040500045E-1
3.192430251E0,-6.529874802E-1,2.589125037E-1,-1.991000026E-1
3.194873636E0,-5.405125022E-1,2.821500003E-1,-2.297624946E-1
3.197317020E0,-4.464625120E-1,3.004375100E-1,-2.736249864E-1
3.199760495E0,-3.756499887E-1,3.359124959E-1,-3.348124921E-1
3.202203882E0,-3.181749880E-1,2.931500077E-1,-3.603875041E-1
3.204647266E0,-2.840749919E-1,2.441999912E-1,-3.921499848E-1
3.207090651E0,-2.595999837E-1,2.723875046E-1,-4.300999939E-1
3.209534264E0,-2.668874860E-1,2.454375029E-1,-4.324375093E-1
3.211977651E0,-2.766500115E-1,2.014375031E-1,-4.361499846E-1
3.214421036E0,-2.693625093E-1,1.379124969E-1,-4.019125104E-1
3.216864420E0,-2.778874934E-1,1.049124971E-1,-2.822875082E-1
3.219307805E0,-3.036000133E-1,8.538749814E-2,-1.673374921E-1
3.221751264E0,-2.778874934E-1,1.123374999E-1,-1.380500048E-1
3.224194661E0,-2.681249976E-1,1.501500010E-1,-1.490499973E-1
3.226638046E0,-2.840749919E-1,1.331000030E-1,-1.552374959E-1
3.229081430E0,-2.938374877E-1,1.220999956E-1,-1.735250056E-1
3.231525044E0,-2.938374877E-1,1.220999956E-1,-1.991000026E-1
3.233968430E0,-3.048374951E-1,1.038125008E-1,-2.125750035E-1
3.236411890E0,-3.243624866E-1,8.057499677E-2,-2.088624984E-1
3.238855199E0,-3.316499889E-1,7.809999585E-2,-1.808124930E-1
3.241298659E0,-3.145999908E-1,9.391249716E-2,-1.710499972E-1
3.243742046E0,-2.950749993E-1,8.662500232E-2,-1.405249983E-1
3.246185430E0,-2.754124999E-1,7.562500238E-2,-1.062875018E-1
3.248629044E0,-2.278375030E-1,9.515000135E-2,-9.171249717E-2
3.251072430E0,-1.715999991E-1,1.049124971E-1,-9.528750181E-2
3.253515815E0,-1.215500012E-1,1.013374999E-1,-8.923749626E-2
3.255959199E0,-6.531249732E-2,9.515000135E-2,-7.081250101E-2
3.258402673E0,6.737499963E-3,8.662500232E-2,-4.895000160E-2
3.260846060E0,8.621250093E-2,5.857500061E-2,-2.928750031E-2
3.263289444E0,1.667875051E-1,5.128749833E-2,-1.099999994E-2
3.265732829E0,2.290749997E-1,9.281250089E-2,-6.187499966E-3
3.268176442E0,2.657875121E-1,1.331000030E-1,-2.474999987E-3
3.270619815E0,2.767874897E-1,1.684374958E-1,4.812499974E-3
3.273063199E0,2.718375027E-1,1.966249943E-1,3.712499980E-3
3.275506659E0,2.865499854E-1,2.736249864E-1,9.762499481E-3
3.277950046E0,3.341250122E-1,3.566749990E-1,1.952499896E-2
3.280393430E0,4.086500108E-1,4.030124843E-1,1.952499896E-2
3.282836805E0,4.868874848E-1,4.384875000E-1,1.223750040E-2
3.285280418E0,5.638874769E-1,4.507249892E-1,3.712499980E-3
3.287723805E0,6.237000227E-1,3.909125030E-1,-2.076249942E-2
3.290167190E0,6.786999702E-1,2.503874898E-1,-4.276249930E-2
3.292610570E0,7.544624805E-1,1.611499935E-1,-5.623750016E-2
3.295053955E0,8.729875088E-1,1.868624985E-1,-7.576250285E-2
3.297497414E0,1.003612518E0,2.528625131E-1,-6.476250291E-2
3.299940801E0,1.144137502E0,2.979624867E-1,-4.152499884E-2
3.302384186E0,1.263900042E0,3.737249970E-1,-2.928750031E-2
3.304827570E0,1.356712461E0,4.702500105E-1,-3.671250120E-2
3.307271184E0,1.436187506E0,5.117750168E-1,-4.276249930E-2
3.309714570E0,1.469187498E0,5.410624743E-1,-6.104999781E-2
3.312157955E0,1.522949934E0,-3.947624862E-1,-1.160499975E-1
3.314601414E0,6.054124832E-1,-3.497862577E0,-4.190999866E-1
3.317044800E0,5.088874698E-1,-3.737250090E0,-5.704874992E-1
3.319488185E0,1.277374983E0,-1.169299960E0,-5.754374862E-1
3.321931569E0,1.075799942E0,-7.111499906E-1,-1.588124931E-1
3.324375183E0,2.265999913E-1,-1.096012473E0,-1.417624950E-1
3.326818569E0,9.350000322E-2,3.664374948E-1,-8.923749626E-2
3.329261969E0,-4.868874848E-1,7.341125011E-1,-7.328750193E-2
3.331705353E0,-5.307499766E-1,9.613999724E-1,-2.323750034E-2
3.334148813E0,-3.695999980E-1,7.964000106E-1,-4.152499884E-2
3.336592200E0,-9.336250275E-2,4.019125104E-1,-5.499999970E-2
3.339035584E0,1.402499992E-2,2.906749845E-1,-0.000000000E0
3.341479212E0,7.755000144E-2,1.966249943E-1,1.581249945E-2
3.343922598E0,8.497499675E-2,-1.759999990E-1,-1.099999994E-2
3.346365983E0,-3.355000168E-2,-3.848625124E-1,-2.447500080E-2
3.348809368E0,6.655000150E-2,-5.218124986E-1,-3.795000166E-2
3.351252827E0,3.036000133E-1,-4.716250002E-1,-3.547500074E-2
3.353696214E0,2.413125038E-1,-3.115749955E-1,-4.152499884E-2
3.356139598E0,-1.649999991E-2,-1.471249945E-2,-3.904999793E-2
3.358582983E0,-1.606000066E-1,1.991000026E-1,-2.076249942E-2
3.361026596E0,-1.570249945E-1,2.846249938E-1,-2.928750031E-2
3.363469983E0,-7.507500052E-2,2.198625058E-1,-2.323750034E-2
3.365913363E0,2.502499893E-2,3.038750030E-2,-3.671250120E-2
3.368356747E0,1.399749964E-1,-9.295000136E-2,-3.547500074E-2
3.370800207E0,1.630750000E-1,-1.845249981E-1,-1.471249945E-2
3.373243593E0,1.020250022E-1,-1.271875054E-1,-1.237499993E-3
3.375686978E0,1.897500083E-2,2.557500079E-2,4.812499974E-3
3.378130358E0,-5.183750018E-2,1.183874980E-1,9.762499481E-3
3.380573971E0,-5.926249921E-2,1.233374998E-1,1.457499992E-2
3.383017358E0,-9.074999951E-3,6.104999781E-2,6.049999967E-3
3.385460742E0,9.212499484E-3,-2.818750031E-2,1.237499993E-3
3.387904127E0,2.502499893E-2,-9.542500228E-2,1.099999994E-2
3.390347572E0,4.262499977E-3,-1.002374962E-1,8.524999954E-3
3.392790959E0,-5.073750019E-2,-4.647500068E-2,-4.949999973E-3
3.395234344E0,-9.102500230E-2,3.781250119E-2,-7.287499961E-3
3.397677957E0,-8.978749812E-2,8.538749814E-2,-2.474999987E-3
3.400121344E0,-3.478749841E-2,5.362499878E-2,-1.237499993E-3
3.402564742E0,3.726249933E-2,-3.918749839E-2,-9.762499481E-3
3.405008127E0,8.497499675E-2,-1.027124971E-1,-1.828750037E-2
3.407451586E0,7.521250099E-2,-1.247124970E-1,-1.828750037E-2
3.409894973E0,2.021249942E-2,-8.799999952E-2,-1.471249945E-2
3.412338358E0,-2.983750030E-2,-1.374999993E-4,-1.828750037E-2
3.414781956E0,-6.283749640E-2,4.757500067E-2,-1.594999991E-2
3.417225343E0,-5.926249921E-2,7.562500238E-2,-1.828750037E-2
3.419668727E0,-1.526249945E-2,7.809999585E-2,-1.828750037E-2
3.422112112E0,-4.262499977E-3,1.457499992E-2,-8.524999954E-3
3.424555571E0,3.024999984E-3,-2.474999987E-3,-3.712499980E-3
3.426998948E0,-7.974999957E-3,1.209999993E-2,-1.099999994E-2
3.429442333E0,-3.973750025E-2,3.781250119E-2,-2.323750034E-2
3.431885717E0,-3.973750025E-2,3.409999982E-2,-3.299999982E-2
3.434329331E0,5.499999970E-3,3.533750027E-2,-3.904999793E-2
3.436772717E0,5.678749830E-2,8.524999954E-3,-3.671250120E-2
3.439216112E0,1.007874981E-1,-1.966249943E-2,-3.299999982E-2
3.441659497E0,1.007874981E-1,-2.942499891E-2,-2.571249940E-2
3.444102956E0,6.544999778E-2,-6.187499966E-3,-1.347499993E-2
3.446546343E0,2.873750031E-2,3.038750030E-2,-6.187499966E-3
3.448989727E0,-4.262499977E-3,5.238749832E-2,-1.237499993E-3
3.451433107E0,-1.526249945E-2,3.533750027E-2,7.287499961E-3
3.453876720E0,3.024999984E-3,-4.949999973E-3,1.828750037E-2
3.456320107E0,6.737499963E-3,-2.694999985E-2,2.447500080E-2
3.458763567E0,6.874999963E-4,-4.523750022E-2,2.681249939E-2
3.461206876E0,-2.983750030E-2,-5.871250108E-2,2.323750034E-2
3.463650336E0,-7.755000144E-2,-4.523750022E-2,1.581249945E-2
3.466093722E0,-1.032624990E-1,-1.842499897E-2,9.762499481E-3
3.468537107E0,-9.102500230E-2,1.457499992E-2,2.474999987E-3
3.470980492E0,-5.431250110E-2,7.287499961E-3,-1.237499993E-3
3.473424100E0,-5.499999970E-3,-3.313750029E-2,-4.949999973E-3
3.475867487E0,3.849999979E-2,-7.699999958E-2,-9.762499481E-3
3.478310871E0,6.778749824E-2,-9.171249717E-2,-1.828750037E-2
3.480754331E0,4.468749836E-2,-8.442500234E-2,-1.952499896E-2
3.483197717E0,5.499999970E-3,-4.895000160E-2,-1.718750037E-2
3.485641131E0,-1.883750036E-2,-1.237499993E-2,-1.471249945E-2
3.488084516E0,-2.749999985E-2,4.812499974E-3,-9.762499481E-3
3.490528129E0,-1.883750036E-2,2.433750033E-2,-2.474999987E-3
3.492971516E0,1.924999990E-3,2.557500079E-2,1.457499992E-2
3.495414975E0,1.924999990E-3,9.624999948E-3,1.099999994E-2
3.497858285E0,-6.737499963E-3,4.812499974E-3,-1.237499993E-3
3.500301744E0,-2.007500082E-2,2.062499896E-2,-1.099999994E-2
3.502745131E0,-3.231250122E-2,2.062499896E-2,-1.952499896E-2
3.505188516E0,-2.131249942E-2,-6.187499966E-3,-2.928750031E-2
3.507632129E0,9.212499484E-3,-1.718750037E-2,-3.795000166E-2
3.510075516E0,3.368749842E-2,-2.089999989E-2,-3.547500074E-2
3.512518900E0,5.444999784E-2,-1.471249945E-2,-2.571249940E-2
3.514962285E0,4.702499881E-2,-8.662499487E-3,-1.471249945E-2
3.517405745E0,3.244999796E-2,-1.374999993E-4,-7.287499961E-3
3.519849131E0,2.021249942E-2,1.333750039E-2,1.237499993E-3
3.522292497E0,4.262499977E-3,2.309999987E-2,6.049999967E-3
3.524735881E0,3.024999984E-3,1.086249948E-2,9.762499481E-3
3.527179495E0,1.292499993E-2,-1.594999991E-2,1.581249945E-2
3.529622881E0,7.974999957E-3,-9.899999946E-3,2.447500080E-2
3.532066266E0,-9.074999951E-3,6.049999967E-3,2.447500080E-2
3.534509622E0,-2.626249939E-2,4.812499974E-3,1.952499896E-2
3.536953081E0,-4.331250116E-2,-6.187499966E-3,1.099999994E-2
3.539396468E0,-5.678749830E-2,-1.374999993E-3,6.049999967E-3
3.541840081E0,-5.802499875E-2,2.186249942E-2,-1.237499993E-3
3.544283237E0,-3.602499887E-2,2.557500079E-2,-3.712499980E-3
3.546726855E0,4.262499977E-3,7.287499961E-3,-2.474999987E-3
3.549170242E0,4.221250117E-2,-1.594999991E-2,-2.474999987E-3
3.551613702E0,6.049999967E-2,-3.189999983E-2,-2.474999987E-3
3.554057088E0,5.073750019E-2,-3.795000166E-2,1.237499993E-3
3.556500473E0,2.997500077E-2,-2.942499891E-2,1.237499993E-3
3.558943871E0,1.168750040E-2,-1.237499993E-2,1.223750040E-2
3.561387256E0,-1.154999994E-2,8.524999954E-3,1.704999991E-2
3.563830869E0,-2.254999988E-2,4.028749838E-2,1.952499896E-2
3.566274256E0,-2.131249942E-2,4.386249930E-2,2.557500079E-2
3.568717716E0,-5.499999970E-3,3.409999982E-2,1.581249945E-2
3.571161030E0,-7.974999957E-3,2.309999987E-2,7.287499961E-3
3.573604490E0,-2.502499893E-2,3.286249936E-2,-3.712499980E-3
3.576047877E0,-4.331250116E-2,3.533750027E-2,-1.347499993E-2
3.578491490E0,-3.602499887E-2,4.812499974E-3,-1.952499896E-2
3.580934877E0,-7.974999957E-3,4.812499974E-3,-2.694999985E-2
3.583378285E0,2.021249942E-2,2.928750031E-2,-1.952499896E-2
3.585821670E0,3.849999979E-2,3.162499890E-2,-7.287499961E-3
3.588265129E0,4.949999973E-2,2.804999985E-2,3.712499980E-3
3.590708516E0,5.321250111E-2,4.812499974E-3,1.099999994E-2
3.593151886E0,4.221250117E-2,1.086249948E-2,1.704999991E-2
3.595595270E0,7.974999957E-3,2.186249942E-2,2.323750034E-2
3.598038884E0,-1.154999994E-2,3.533750027E-2,3.176249936E-2
3.600482270E0,-2.007500082E-2,9.624999948E-3,3.547500074E-2
3.602925655E0,-1.649999991E-2,-2.474999987E-3,3.547500074E-2
3.605369044E0,-1.649999991E-2,-1.374999993E-4,3.904999793E-2
3.607812504E0,-2.626249939E-2,-7.424999960E-3,3.781250119E-2
3.610255891E0,-5.555000156E-2,-9.762499481E-3,2.804999985E-2
3.612699275E0,-7.878749818E-2,-3.712499980E-3,1.457499992E-2
3.615142660E0,-8.249999583E-2,1.581249945E-2,4.812499974E-3
3.617586273E0,-6.049999967E-2,2.433750033E-2,7.287499961E-3
3.620029660E0,-2.502499893E-2,1.333750039E-2,1.209999993E-2
3.622473044E0,1.278750040E-2,-1.237499993E-3,1.828750037E-2
3.624916504E0,3.726249933E-2,-1.223750040E-2,1.828750037E-2
3.627359891E0,3.726249933E-2,-1.471249945E-2,1.952499896E-2
3.629803294E0,2.021249942E-2,-9.762499481E-3,2.557500079E-2
3.632246679E0,3.024999984E-3,2.337499987E-3,3.052499890E-2
3.634690292E0,-2.873750031E-2,6.049999967E-3,3.409999982E-2
3.637133679E0,-4.949999973E-2,2.681249939E-2,3.286249936E-2
3.639577064E0,-5.431250110E-2,4.633750021E-2,3.533750027E-2
3.642020519E0,-4.826249927E-2,4.757500067E-2,3.657500073E-2
3.644463906E0,-3.602499887E-2,4.757500067E-2,3.176249936E-2
3.646907290E0,-4.331250116E-2,5.004999787E-2,2.433750033E-2
3.649350675E0,-5.183750018E-2,6.228749827E-2,1.581249945E-2
3.651794288E0,-5.555000156E-2,6.586249918E-2,3.574999981E-3
3.654237703E0,-3.355000168E-2,4.757500067E-2,2.337499987E-3
3.656681088E0,1.787499990E-3,2.309999987E-2,1.099999994E-3
3.659124472E0,1.897500083E-2,2.557500079E-2,7.287499961E-3
3.661567932E0,2.749999985E-2,4.276249930E-2,2.076249942E-2
3.664011318E0,2.502499893E-2,5.128749833E-2,3.904999793E-2
3.666454708E0,1.773750037E-2,3.052499890E-2,5.252499878E-2
3.668898321E0,9.212499484E-3,2.804999985E-2,5.733750015E-2
3.671341708E0,-3.024999984E-3,2.199999988E-2,6.586249918E-2
3.673785093E0,-1.649999991E-2,2.199999988E-2,6.710000336E-2
3.676228477E0,-3.355000168E-2,-1.237499993E-3,6.586249918E-2
3.678671848E0,-4.455000162E-2,-2.474999987E-3,6.104999781E-2
3.681115307E0,-5.802499875E-2,1.581249945E-2,6.104999781E-2
3.683558694E0,-6.283749640E-2,3.176249936E-2,6.462500244E-2
3.686002079E0,-6.778749824E-2,2.557500079E-2,5.609999970E-2
3.688445463E0,-7.878749818E-2,2.681249939E-2,4.386249930E-2
3.690889077E0,-8.731249720E-2,3.904999793E-2,3.409999982E-2
3.693332463E0,-7.631249726E-2,5.733750015E-2,2.928750031E-2
3.695775923E0,-4.083750024E-2,6.228749827E-2,3.409999982E-2
3.698219309E0,-1.787499990E-3,5.004999787E-2,3.904999793E-2
3.700662694E0,3.121249937E-2,3.409999982E-2,3.904999793E-2
3.703106064E0,4.578749835E-2,3.052499890E-2,4.028749838E-2
3.705549677E0,4.221250117E-2,2.076249942E-2,4.276249930E-2
3.707993064E0,1.168750040E-2,9.762499481E-3,4.386249930E-2
3.710436448E0,-1.649999991E-2,2.337499987E-3,5.128749833E-2
3.712879833E0,-3.602499887E-2,1.704999991E-2,5.128749833E-2
3.715323292E0,-5.678749830E-2,2.804999985E-2,5.128749833E-2
3.717766679E0,-6.049999967E-2,4.399999976E-2,4.881250113E-2
3.720210064E0,-4.826249927E-2,5.252499878E-2,4.757500067E-2
3.722653448E0,-4.826249927E-2,6.104999781E-2,3.657500073E-2
3.725097062E0,-5.926249921E-2,6.710000336E-2,2.557500079E-2
3.727540434E0,-6.049999967E-2,7.452499866E-2,2.076249942E-2
3.729983894E0,-4.702499881E-2,6.586249918E-2,1.828750037E-2
3.732427204E0,-1.649999991E-2,4.028749838E-2,1.581249945E-2
3.734870663E0,1.168750040E-2,4.509999976E-2,1.457499992E-2
3.737314050E0,2.626249939E-2,5.981250107E-2,2.681249939E-2
3.739757663E0,3.849999979E-2,6.352499872E-2,4.276249930E-2
3.742201050E0,3.726249933E-2,5.004999787E-2,5.609999970E-2
3.744644434E0,2.502499893E-2,4.028749838E-2,6.352499872E-2
3.747087819E0,4.262499977E-3,4.276249930E-2,7.081250101E-2
3.749531204E0,-1.897500083E-2,4.276249930E-2,7.328750193E-2
3.751974668E0,-3.478749841E-2,2.557500079E-2,7.204999775E-2
3.754418055E0,-4.083750024E-2,8.524999954E-3,6.833750010E-2
3.756861439E0,-4.702499881E-2,9.762499481E-3,6.586249918E-2
3.759305053E0,-5.678749830E-2,2.557500079E-2,7.081250101E-2
3.761748439E0,-6.902500242E-2,3.409999982E-2,6.586249918E-2
3.764191843E0,-8.359999955E-2,4.028749838E-2,5.609999970E-2
3.766635228E0,-9.459999949E-2,4.881250113E-2,4.633750021E-2
3.769078687E0,-8.359999955E-2,5.981250107E-2,3.904999793E-2
3.771522074E0,-5.802499875E-2,6.957499683E-2,3.904999793E-2
3.773965443E0,-2.131249942E-2,6.586249918E-2,4.881250113E-2
3.776409057E0,1.168750040E-2,5.004999787E-2,5.252499878E-2
3.778852443E0,3.849999979E-2,4.399999976E-2,5.252499878E-2
3.781295828E0,4.455000162E-2,3.657500073E-2,5.362499878E-2
3.783739213E0,3.121249937E-2,3.657500073E-2,5.609999970E-2
3.786182687E0,-1.787499990E-3,2.199999988E-2,5.981250107E-2
3.788626074E0,-3.355000168E-2,3.299999982E-2,5.981250107E-2
3.791069458E0,-6.173750013E-2,3.781250119E-2,6.104999781E-2
3.793512843E0,-8.126249909E-2,4.881250113E-2,5.733750015E-2
3.795956457E0,-8.002500236E-2,6.352499872E-2,6.104999781E-2
3.798399853E0,-6.902500242E-2,7.686249912E-2,5.857500061E-2
3.800843238E0,-7.383749634E-2,8.304999769E-2,4.633750021E-2
3.803286697E0,-7.383749634E-2,9.281250089E-2,4.028749838E-2
3.805730084E0,-6.531249732E-2,9.281250089E-2,3.286249936E-2
3.808173469E0,-4.083750024E-2,7.686249912E-2,2.681249939E-2
3.810616848E0,-6.737499963E-3,5.376249924E-2,2.309999987E-2
3.813060462E0,2.378750034E-2,4.881250113E-2,2.557500079E-2
3.815503848E0,3.849999979E-2,5.609999970E-2,4.028749838E-2
3.817947233E0,3.726249933E-2,7.204999775E-2,5.609999970E-2
3.820390617E0,2.268750034E-2,6.833750010E-2,7.081250101E-2
3.822834049E0,1.044999994E-2,5.733750015E-2,7.809999585E-2
3.825277436E0,-1.154999994E-2,5.252499878E-2,8.304999769E-2
3.827720820E0,-3.107500076E-2,4.757500067E-2,8.662500232E-2
3.830164434E0,-4.578749835E-2,3.052499890E-2,8.538749814E-2
3.832607820E0,-5.678749830E-2,9.762499481E-3,8.428750187E-2
3.835051219E0,-7.150000334E-2,1.457499992E-2,7.933750004E-2
3.837494603E0,-8.126249909E-2,3.409999982E-2,7.933750004E-2
3.839938063E0,-9.583749622E-2,3.533750027E-2,7.562500238E-2
3.842381450E0,-1.153625026E-1,4.028749838E-2,6.586249918E-2
3.844825063E0,-1.203124970E-1,6.352499872E-2,5.857500061E-2
3.847268440E0,-9.583749622E-2,9.157499671E-2,5.486249924E-2
3.849711824E0,-5.555000156E-2,1.050499976E-1,5.609999970E-2
3.852155209E0,-6.737499963E-3,8.181250095E-2,6.104999781E-2
3.854598668E0,4.097500071E-2,5.004999787E-2,5.609999970E-2
3.857042055E0,6.902500242E-2,2.433750033E-2,5.486249924E-2
3.859485435E0,5.444999784E-2,1.457499992E-2,5.252499878E-2
3.861928819E0,1.526249945E-2,1.581249945E-2,5.857500061E-2
3.864372433E0,-3.726249933E-2,2.928750031E-2,6.586249918E-2
3.866815819E0,-6.531249732E-2,5.004999787E-2,6.586249918E-2
3.869259204E0,-8.855000138E-2,4.757500067E-2,6.833750010E-2
3.871702580E0,-8.359999955E-2,5.857500061E-2,7.081250101E-2
3.874146039E0,-7.259999961E-2,6.833750010E-2,7.328750193E-2
3.876589426E0,-7.383749634E-2,8.304999769E-2,6.228749827E-2
3.879033039E0,-8.855000138E-2,8.676250279E-2,4.881250113E-2
3.881476195E0,-8.855000138E-2,9.652499855E-2,4.386249930E-2
3.883919592E0,-5.555000156E-2,7.452499866E-2,4.276249930E-2
3.886363207E0,-1.897500083E-2,5.376249924E-2,3.176249936E-2
3.888806594E0,1.044999994E-2,5.857500061E-2,3.052499890E-2
3.891250053E0,3.121249937E-2,7.081250101E-2,4.028749838E-2
3.893693459E0,3.849999979E-2,8.057499677E-2,5.362499878E-2
3.896136843E0,3.244999796E-2,6.957499683E-2,6.462500244E-2
3.898580228E0,2.144999988E-2,6.104999781E-2,6.957499683E-2
3.901023841E0,-4.262499977E-3,6.352499872E-2,7.562500238E-2
3.903467228E0,-2.378750034E-2,7.204999775E-2,8.428750187E-2
3.905910633E0,-4.083750024E-2,6.104999781E-2,8.538749814E-2
3.908354017E0,-4.578749835E-2,4.633750021E-2,8.181250095E-2
3.910797477E0,-4.578749835E-2,4.509999976E-2,8.538749814E-2
3.913240863E0,-5.431250110E-2,4.399999976E-2,8.662500232E-2
3.915684248E0,-7.150000334E-2,3.904999793E-2,7.686249912E-2
3.918127890E0,-9.707500041E-2,5.128749833E-2,6.586249918E-2
3.920571277E0,-1.105500013E-1,7.452499866E-2,6.352499872E-2
3.923014662E0,-9.226249903E-2,9.652499855E-2,5.981250107E-2
3.925458046E0,-5.307500064E-2,8.786249906E-2,5.981250107E-2
3.927901506E0,-1.031249948E-2,5.252499878E-2,6.352499872E-2
3.930344887E0,2.997500077E-2,2.309999987E-2,5.733750015E-2
3.932788272E0,3.726249933E-2,8.524999954E-3,5.981250107E-2
3.935231885E0,1.897500083E-2,6.049999967E-3,5.733750015E-2
3.937675272E0,-1.278750040E-2,2.199999988E-2,5.609999970E-2
3.940118657E0,-6.173750013E-2,4.633750021E-2,6.352499872E-2
3.942562021E0,-8.002500236E-2,7.452499866E-2,5.857500061E-2
3.945005481E0,-8.731249720E-2,8.304999769E-2,6.352499872E-2
3.947448867E0,-6.902500242E-2,7.809999585E-2,6.957499683E-2
3.949892252E0,-6.407500058E-2,7.328750193E-2,6.586249918E-2
3.952335865E0,-7.383749634E-2,9.157499671E-2,5.252499878E-2
3.954779233E0,-8.483749628E-2,1.270499974E-1,4.509999976E-2
3.957222618E0,-8.855000138E-2,1.233374998E-1,4.386249930E-2
3.959666002E0,-4.826249927E-2,9.404999763E-2,3.781250119E-2
3.962109387E0,1.787499990E-3,8.057499677E-2,3.409999982E-2
3.964552847E0,4.344999790E-2,7.452499866E-2,3.409999982E-2
3.966996219E0,6.421250105E-2,5.252499878E-2,3.904999793E-2
3.969439833E0,5.555000156E-2,5.609999970E-2,4.881250113E-2
3.971883219E0,2.021249942E-2,6.586249918E-2,5.733750015E-2
3.974326604E0,-7.974999957E-3,1.013374999E-1,6.352499872E-2
3.976769988E0,-3.231250122E-2,1.000999957E-1,8.057499677E-2
3.979213433E0,-3.726249933E-2,7.933750004E-2,9.033749998E-2
3.981656820E0,-3.602499887E-2,4.276249930E-2,9.157499671E-2
3.984100204E0,-4.826249927E-2,4.276249930E-2,8.910000324E-2
3.986543589E0,-6.173750013E-2,5.857500061E-2,9.528750181E-2
3.988987202E0,-8.359999955E-2,6.104999781E-2,9.281250089E-2
3.991430574E0,-1.020250022E-1,6.957499683E-2,7.328750193E-2
3.993873958E0,-1.165999994E-1,7.328750193E-2,6.462500244E-2
3.996317418E0,-9.955000132E-2,9.157499671E-2,5.857500061E-2
3.998760805E0,-6.778749824E-2,8.676250279E-2,5.609999970E-2
4.001204189E0,-3.602499887E-2,6.957499683E-2,5.857500061E-2
4.003647817E0,-5.499999970E-4,4.276249930E-2,5.733750015E-2
4.006091203E0,1.526249945E-2,3.409999982E-2,5.362499878E-2
4.008534588E0,9.212499484E-3,2.681249939E-2,5.857500061E-2
4.010977972E0,-5.499999970E-3,3.176249936E-2,5.609999970E-2
4.013421432E0,-2.873750031E-2,4.152499884E-2,6.352499872E-2
4.015864819E0,-5.555000156E-2,3.781250119E-2,6.957499683E-2
4.018308203E0,-6.283749640E-2,5.733750015E-2,7.204999775E-2
4.020751588E0,-7.507500052E-2,7.686249912E-2,8.181250095E-2
4.023195201E0,-7.507500052E-2,1.013374999E-1,7.933750004E-2
4.025638574E0,-8.002500236E-2,1.075249985E-1,7.081250101E-2
4.028081959E0,-7.383749634E-2,1.148125008E-1,5.609999970E-2
4.030525343E0,-7.150000334E-2,1.172875017E-1,4.386249930E-2
4.032968803E0,-5.183750018E-2,9.157499671E-2,3.176249936E-2
4.035412189E0,-2.254999988E-2,6.104999781E-2,2.681249939E-2
4.037855569E0,9.212499484E-3,5.004999787E-2,2.309999987E-2
4.040299182E0,2.873750031E-2,5.609999970E-2,2.681249939E-2
4.042742569E0,2.378750034E-2,7.576250285E-2,3.781250119E-2
4.045185954E0,1.168750040E-2,8.786249906E-2,5.486249924E-2
4.047629413E0,-3.024999984E-3,7.686249912E-2,6.462500244E-2
4.050072800E0,-1.278750040E-2,8.428750187E-2,6.833750010E-2
4.052516184E0,-1.031249948E-2,7.809999585E-2,8.057499677E-2
4.054959569E0,-1.649999991E-2,4.276249930E-2,8.304999769E-2
4.057403182E0,-2.131249942E-2,2.076249942E-2,8.057499677E-2
4.059846569E0,-5.073750019E-2,4.276249930E-2,7.933750004E-2
4.062289968E0,-7.150000334E-2,6.228749827E-2,8.304999769E-2
4.064733352E0,-8.731249720E-2,6.228749827E-2,7.809999585E-2
4.067176812E0,-1.044999957E-1,5.857500061E-2,6.710000336E-2
4.069620198E0,-1.178374961E-1,5.733750015E-2,5.981250107E-2
4.072063583E0,-1.068374962E-1,8.786249906E-2,5.252499878E-2
4.074507210E0,-7.026249915E-2,1.025749967E-1,5.609999970E-2
4.076950597E0,-2.749999985E-2,7.328750193E-2,5.609999970E-2
4.079393982E0,2.268750034E-2,4.028749838E-2,4.881250113E-2
4.081837441E0,4.455000162E-2,6.049999967E-3,4.152499884E-2
4.084280828E0,3.368749842E-2,-1.471249945E-2,3.781250119E-2
4.086724208E0,5.499999970E-3,1.333750039E-2,3.781250119E-2
4.089167593E0,-3.602499887E-2,3.409999982E-2,5.004999787E-2
4.091611206E0,-6.778749824E-2,6.228749827E-2,5.004999787E-2
4.094054593E0,-7.259999961E-2,8.181250095E-2,4.881250113E-2
4.096497978E0,-5.802499875E-2,7.081250101E-2,5.857500061E-2
4.098941352E0,-4.083750024E-2,5.609999970E-2,5.362499878E-2
4.101384812E0,-4.455000162E-2,5.376249924E-2,4.028749838E-2
4.103828198E0,-6.902500242E-2,8.552499861E-2,2.681249939E-2
4.106271583E0,-8.855000138E-2,9.762500226E-2,1.828750037E-2
4.108714953E0,-6.173750013E-2,8.057499677E-2,1.099999994E-2
4.111158566E0,-1.278750040E-2,5.981250107E-2,9.762499481E-3
4.113601953E0,4.097500071E-2,5.128749833E-2,1.457499992E-2
4.116045337E0,6.655000150E-2,3.176249936E-2,2.309999987E-2
4.118488797E0,5.555000156E-2,3.533750027E-2,3.176249936E-2
4.120932204E0,2.502499893E-2,6.352499872E-2,3.533750027E-2
4.123375588E0,-1.649999991E-2,8.662500232E-2,4.152499884E-2
4.125818973E0,-1.897500083E-2,9.886249900E-2,5.004999787E-2
4.128262586E0,-2.007500082E-2,4.633750021E-2,6.228749827E-2
4.130705973E0,-3.024999984E-3,1.828750037E-2,5.981250107E-2
4.133149357E0,-1.897500083E-2,1.209999993E-2,5.857500061E-2
4.135592817E0,-3.355000168E-2,2.557500079E-2,5.857500061E-2
4.138036204E0,-4.455000162E-2,2.076249942E-2,5.857500061E-2
4.140479588E0,-8.002500236E-2,3.286249936E-2,4.757500067E-2
4.142922973E0,-1.105500013E-1,5.981250107E-2,3.781250119E-2
4.145366586E0,-1.043625027E-1,1.038125008E-1,3.409999982E-2
4.147809973E0,-5.926249921E-2,1.013374999E-1,3.904999793E-2
4.150253432E0,-3.024999984E-3,5.609999970E-2,3.904999793E-2
4.152696742E0,5.321250111E-2,-8.662499487E-3,2.804999985E-2
4.155140202E0,7.644999772E-2,-4.042499885E-2,1.828750037E-2
4.157583588E0,5.073750019E-2,-3.671250120E-2,2.199999988E-2
4.160027202E0,4.262499977E-3,7.287499961E-3,2.199999988E-2
4.162470588E0,-4.826249927E-2,5.486249924E-2,3.052499890E-2
4.164913973E0,-7.755000144E-2,8.428750187E-2,3.176249936E-2
4.167357357E0,-6.283749640E-2,8.552499861E-2,3.286249936E-2
4.169800831E0,-3.478749841E-2,6.228749827E-2,4.152499884E-2
4.172244218E0,-1.649999991E-2,4.509999976E-2,3.657500073E-2
4.174687602E0,-2.983750030E-2,5.733750015E-2,2.928750031E-2
4.177130987E0,-6.173750013E-2,1.000999957E-1,1.704999991E-2
4.179574600E0,-7.507500052E-2,1.000999957E-1,7.287499961E-3
4.182018007E0,-4.949999973E-2,7.562500238E-2,-1.237499993E-3
4.184461392E0,4.262499977E-3,4.881250113E-2,-2.474999987E-3
4.186904776E0,5.444999784E-2,2.433750033E-2,2.337499987E-3
4.189348236E0,7.150000334E-2,8.524999954E-3,6.049999967E-3
4.191791622E0,4.949999973E-2,1.457499992E-2,1.333750039E-2
4.194235007E0,1.649999991E-2,5.252499878E-2,2.199999988E-2
4.196678620E0,-1.402499992E-2,6.833750010E-2,2.928750031E-2
4.199122007E0,-5.499999970E-4,6.957499683E-2,3.286249936E-2
4.201565392E0,6.737499963E-3,1.333750039E-2,4.276249930E-2
4.204008851E0,1.897500083E-2,-6.187499966E-3,4.152499884E-2
4.206452267E0,6.874999963E-4,-6.187499966E-3,4.152499884E-2
4.208895651E0,-1.897500083E-2,1.457499992E-2,4.386249930E-2
4.211339036E0,-3.602499887E-2,1.333750039E-2,4.276249930E-2
4.213782649E0,-6.407500058E-2,2.199999988E-2,3.533750027E-2
4.216226036E0,-8.249999583E-2,4.152499884E-2,2.557500079E-2
4.218669416E0,-8.126249909E-2,6.476250291E-2,2.309999987E-2
4.221112800E0,-4.455000162E-2,5.252499878E-2,2.309999987E-2
4.223556260E0,-5.499999970E-4,1.828750037E-2,2.199999988E-2
4.225999646E0,3.849999979E-2,-2.571249940E-2,1.581249945E-2
4.228443260E0,5.555000156E-2,-4.895000160E-2,7.287499961E-3
4.230886402E0,4.221250117E-2,-4.771250114E-2,6.049999967E-3
4.233330015E0,4.262499977E-3,-2.818750031E-2,1.099999994E-3
4.235773402E0,-2.254999988E-2,1.952499896E-2,6.049999967E-3
4.238216861E0,-5.073750019E-2,4.509999976E-2,1.333750039E-2
4.240660248E0,-4.083750024E-2,5.486249924E-2,1.704999991E-2
4.243103632E0,-2.007500082E-2,3.409999982E-2,2.433750033E-2
4.245547017E0,-7.974999957E-3,2.804999985E-2,1.581249945E-2
4.247990630E0,-2.007500082E-2,3.409999982E-2,7.287499961E-3
4.250434017E0,-4.826249927E-2,6.586249918E-2,2.337499987E-3
4.252877402E0,-6.778749824E-2,6.476250291E-2,-8.662499487E-3
4.255320781E0,-4.949999973E-2,4.757500067E-2,-1.718750037E-2
4.257764241E0,-3.024999984E-3,3.781250119E-2,-1.347499993E-2
4.260207627E0,3.973750025E-2,2.928750031E-2,-7.424999960E-3
4.262651012E0,6.655000150E-2,1.209999993E-2,-3.712499980E-3
4.265094397E0,5.802499875E-2,-4.949999973E-3,1.099999994E-3
4.267537986E0,3.849999979E-2,2.557500079E-2,2.337499987E-3
4.269981373E0,9.212499484E-3,5.004999787E-2,1.457499992E-2
4.272424757E0,6.874999963E-4,6.586249918E-2,1.952499896E-2
4.274868217E0,6.737499963E-3,3.176249936E-2,2.804999985E-2
4.277311604E0,1.168750040E-2,3.574999981E-3,3.176249936E-2
4.279754978E0,1.044999994E-2,-8.662499487E-3,3.409999982E-2
4.282198592E0,-1.031249948E-2,-2.474999987E-3,3.904999793E-2
4.284641978E0,-3.231250122E-2,-8.662499487E-3,3.904999793E-2
4.287085363E0,-6.531249732E-2,6.049999967E-3,3.052499890E-2
4.289528747E0,-8.731249720E-2,3.286249936E-2,1.828750037E-2
4.291972212E0,-7.507500052E-2,5.733750015E-2,1.457499992E-2
4.294415599E0,-3.478749841E-2,3.409999982E-2,1.704999991E-2
4.296859212E0,1.402499992E-2,-8.662499487E-3,1.581249945E-2
4.299302599E0,4.578749835E-2,-4.771250114E-2,8.524999954E-3
4.301745983E0,5.678749830E-2,-5.376249924E-2,1.099999994E-3
4.304189373E0,2.997500077E-2,-4.399999976E-2,7.287499961E-3
4.306632832E0,-1.787499990E-3,-2.076249942E-2,2.337499987E-3
4.309076142E0,-1.897500083E-2,1.333750039E-2,7.287499961E-3
4.311519602E0,-3.602499887E-2,3.781250119E-2,1.333750039E-2
4.313962974E0,-2.378750034E-2,3.904999793E-2,1.704999991E-2
4.316406588E0,-1.154999994E-2,2.804999985E-2,2.076249942E-2
4.318849974E0,-1.649999991E-2,2.309999987E-2,7.287499961E-3
4.321293359E0,-3.355000168E-2,3.781250119E-2,1.099999994E-3
4.323736818E0,-5.926249921E-2,6.476250291E-2,-4.949999973E-3
4.326180205E0,-5.926249921E-2,4.276249930E-2,-1.471249945E-2
4.328623590E0,-3.107500076E-2,2.681249939E-2,-2.818750031E-2
4.331066974E0,9.212499484E-3,1.333750039E-2,-2.199999988E-2
4.333510588E0,4.826249927E-2,1.581249945E-2,-1.594999991E-2
4.335953974E0,6.173750013E-2,-8.662499487E-3,-6.187499966E-3
4.338397359E0,4.949999973E-2,-1.594999991E-2,-6.187499966E-3
4.340840744E0,2.749999985E-2,2.076249942E-2,2.337499987E-3
4.343284203E0,7.974999957E-3,3.409999982E-2,1.333750039E-2
4.345727590E0,5.499999970E-3,3.409999982E-2,1.952499896E-2
4.348170974E0,9.212499484E-3,4.812499974E-3,2.681249939E-2
4.350614612E0,1.773750037E-2,-1.099999994E-2,3.176249936E-2
4.353057998E0,6.737499963E-3,-4.949999973E-3,3.286249936E-2
4.355501383E0,-1.526249945E-2,-1.718750037E-2,3.533750027E-2
4.357944842E0,-3.849999979E-2,-2.447500080E-2,3.286249936E-2
4.360388229E0,-7.507500052E-2,-1.099999994E-2,2.076249942E-2
4.362831614E0,-8.731249720E-2,1.828750037E-2,9.762499481E-3
4.365274998E0,-6.778749824E-2,3.052499890E-2,7.287499961E-3
4.367718612E0,-2.502499893E-2,-2.474999987E-3,9.762499481E-3
4.370161998E0,1.897500083E-2,-3.547500074E-2,6.049999967E-3
4.372605383E0,4.455000162E-2,-6.118749827E-2,-0.000000000E0
4.375048763E0,4.949999973E-2,-6.723749638E-2,-4.949999973E-3
4.377492222E0,1.773750037E-2,-5.747500062E-2,2.337499987E-3
4.379935609E0,-9.074999951E-3,-2.571249940E-2,-1.237499993E-3
4.382378993E0,-1.773750037E-2,1.209999993E-2,4.812499974E-3
4.384822607E0,-2.873750031E-2,2.199999988E-2,1.209999993E-2
4.387265993E0,-7.974999957E-3,2.076249942E-2,1.704999991E-2
4.389709378E0,-6.737499963E-3,9.762499481E-3,1.828750037E-2
4.392152838E0,-1.773750037E-2,1.457499992E-2,7.287499961E-3
4.394596224E0,-4.331250116E-2,3.533750027E-2,-0.000000000E0
4.397039609E0,-5.926249921E-2,5.128749833E-2,-9.762499481E-3
4.399482968E0,-4.826249927E-2,2.557500079E-2,-2.199999988E-2
4.401926582E0,-1.031249948E-2,-1.237499993E-3,-2.942499891E-2
4.404369968E0,3.121249937E-2,-1.471249945E-2,-2.942499891E-2
4.406813353E0,6.049999967E-2,-2.199999988E-2,-2.199999988E-2
4.409256738E0,6.049999967E-2,-2.571249940E-2,-1.347499993E-2
4.411700212E0,3.602499887E-2,-1.471249945E-2,-8.662499487E-3
4.414143599E0,1.278750040E-2,1.828750037E-2,1.099999994E-3
4.416586983E0,9.212499484E-3,3.533750027E-2,8.524999954E-3
4.419030368E0,1.649999991E-2,1.099999994E-2,1.581249945E-2
4.421473981E0,2.997500077E-2,-2.199999988E-2,2.309999987E-2
4.423917368E0,3.121249937E-2,-2.694999985E-2,2.433750033E-2
4.426360753E0,7.974999957E-3,-4.949999973E-3,2.433750033E-2
4.428804212E0,-1.773750037E-2,-2.474999987E-3,2.433750033E-2
4.431247599E0,-4.207500070E-2,-7.424999960E-3,1.581249945E-2
4.433690988E0,-6.655000150E-2,-4.949999973E-3,3.574999981E-3
4.436134602E0,-7.026249915E-2,7.287499961E-3,-7.424999960E-3
4.438577989E0,-4.578749835E-2,1.704999991E-2,-9.762499481E-3
4.441021373E0,-5.499999970E-3,-8.662499487E-3,-7.424999960E-3
4.443464758E0,2.997500077E-2,-3.795000166E-2,-1.223750040E-2
4.445908217E0,4.826249927E-2,-5.142499879E-2,-1.966249943E-2
4.448351604E0,5.197500065E-2,-4.771250114E-2,-1.842499897E-2
4.450794989E0,2.997500077E-2,-4.399999976E-2,-1.718750037E-2
4.453238373E0,5.499999970E-3,-2.323750034E-2,-1.842499897E-2
4.455681987E0,-9.074999951E-3,6.049999967E-3,-1.099999994E-2
4.458125368E0,-2.007500082E-2,2.309999987E-2,-1.237499993E-3
4.460568828E0,-4.262499977E-3,3.657500073E-2,3.574999981E-3
4.463012214E0,-5.499999970E-4,2.804999985E-2,-0.000000000E0
4.465455599E0,-4.262499977E-3,2.199999988E-2,-1.099999994E-2
4.467898984E0,-2.378750034E-2,3.052499890E-2,-1.594999991E-2
4.470342382E0,-4.207500070E-2,4.276249930E-2,-2.942499891E-2
4.472785996E0,-3.231250122E-2,1.704999991E-2,-3.918749839E-2
4.475229382E0,-5.499999970E-4,-1.471249945E-2,-4.771250114E-2
4.477672842E0,3.726249933E-2,-2.818750031E-2,-4.771250114E-2
4.480116228E0,6.049999967E-2,-2.571249940E-2,-3.795000166E-2
4.482559603E0,5.678749830E-2,-1.718750037E-2,-2.323750034E-2
4.485002988E0,3.602499887E-2,-9.762499481E-3,-1.471249945E-2
4.487446601E0,2.021249942E-2,1.099999994E-2,-9.762499481E-3
4.489889988E0,2.268750034E-2,2.076249942E-2,-0.000000000E0
4.492333382E0,3.121249937E-2,-4.949999973E-3,9.762499481E-3
4.494776767E0,3.973750025E-2,-3.795000166E-2,1.581249945E-2
4.497220226E0,3.121249937E-2,-4.399999976E-2,1.333750039E-2
4.499663613E0,1.044999994E-2,-1.471249945E-2,1.457499992E-2
4.502107226E0,-1.278750040E-2,-1.099999994E-2,1.581249945E-2
4.504550382E0,-3.973750025E-2,-1.718750037E-2,6.049999967E-3
4.506993996E0,-6.173750013E-2,-1.223750040E-2,-6.187499966E-3
4.509437382E0,-6.655000150E-2,-6.187499966E-3,-1.966249943E-2
4.511880842E0,-4.331250116E-2,6.049999967E-3,-2.447500080E-2
4.514324228E0,-1.031249948E-2,-7.424999960E-3,-1.966249943E-2
4.516767613E0,2.873750031E-2,-3.299999982E-2,-2.076249942E-2
4.519210998E0,5.926249921E-2,-5.252499878E-2,-2.942499891E-2
4.521654611E0,6.544999778E-2,-5.747500062E-2,-2.942499891E-2
4.524097998E0,4.826249927E-2,-5.499999970E-2,-2.694999985E-2
4.526541382E0,2.626249939E-2,-3.066249937E-2,-2.571249940E-2
4.528984842E0,5.499999970E-3,-7.424999960E-3,-1.842499897E-2
4.531428228E0,-1.526249945E-2,9.762499481E-3,-9.762499481E-3
4.533871613E0,-7.974999957E-3,2.309999987E-2,-6.187499966E-3
4.536314998E0,-4.262499977E-3,1.581249945E-2,-3.712499980E-3
4.538758601E0,-5.499999970E-3,1.457499992E-2,-1.471249945E-2
4.541201988E0,-2.007500082E-2,1.581249945E-2,-2.076249942E-2
4.543645372E0,-3.726249933E-2,2.557500079E-2,-3.176249936E-2
4.546088832E0,-3.973750025E-2,1.457499992E-2,-4.152499884E-2
4.548532219E0,-1.278750040E-2,-1.594999991E-2,-4.647500068E-2
4.550975594E0,2.268750034E-2,-2.694999985E-2,-4.771250114E-2
4.553418979E0,4.949999973E-2,-2.199999988E-2,-3.918749839E-2
4.555862592E0,5.802499875E-2,-2.323750034E-2,-2.447500080E-2
4.558305979E0,4.578749835E-2,-1.223750040E-2,-1.223750040E-2
4.560749363E0,3.121249937E-2,-0.000000000E0,-7.424999960E-3
4.563192732E0,2.021249942E-2,7.287499961E-3,1.099999994E-3
4.565636192E0,2.502499893E-2,-1.237499993E-3,1.209999993E-2
4.568079578E0,2.997500077E-2,-2.818750031E-2,2.199999988E-2
4.570522963E0,2.873750031E-2,-5.376249924E-2,2.076249942E-2
4.572966576E0,9.212499484E-3,-2.942499891E-2,1.952499896E-2
4.575409949E0,-1.278750040E-2,-1.099999994E-2,2.309999987E-2
4.577853333E0,-3.231250122E-2,-1.347499993E-2,1.704999991E-2
4.580296793E0,-5.431250110E-2,-1.966249943E-2,1.099999994E-3
4.582740180E0,-6.655000150E-2,-2.199999988E-2,-1.718750037E-2
4.585183564E0,-5.802499875E-2,-1.347499993E-2,-2.447500080E-2
4.587627187E0,-2.131249942E-2,-9.762499481E-3,-2.323750034E-2
4.590070573E0,7.974999957E-3,-2.571249940E-2,-1.718750037E-2
4.592513958E0,4.578749835E-2,-4.276249930E-2,-1.966249943E-2
4.594957342E0,6.544999778E-2,-4.771250114E-2,-2.323750034E-2
4.597400802E0,6.297499686E-2,-5.142499879E-2,-2.076249942E-2
4.599844180E0,4.455000162E-2,-3.671250120E-2,-2.199999988E-2
4.602287793E0,1.773750037E-2,-1.223750040E-2,-1.471249945E-2
4.604730949E0,-1.402499992E-2,-1.237499993E-3,-7.424999960E-3
4.607174562E0,-2.378750034E-2,1.952499896E-2,-7.424999960E-3
4.609617949E0,-1.773750037E-2,2.557500079E-2,-1.374999993E-4
4.612061422E0,-7.974999957E-3,1.952499896E-2,-6.187499966E-3
4.614504732E0,-1.031249948E-2,1.099999994E-2,-1.594999991E-2
4.616948192E0,-2.626249939E-2,2.323750034E-2,-2.571249940E-2
4.619391578E0,-4.207500070E-2,3.423750028E-2,-3.671250120E-2
4.621835192E0,-3.107500076E-2,1.223750040E-2,-4.413750023E-2
4.624278573E0,-5.499999970E-4,-2.199999988E-2,-4.895000160E-2
4.626721958E0,3.121249937E-2,-2.694999985E-2,-4.771250114E-2
4.629165343E0,4.826249927E-2,-1.718750037E-2,-3.671250120E-2
4.631608802E0,4.702499881E-2,-4.949999973E-3,-1.966249943E-2
4.634052160E0,4.097500071E-2,-1.237499993E-3,-4.949999973E-3
4.636495544E0,2.997500077E-2,2.474999987E-3,1.099999994E-3
4.638938929E0,2.749999985E-2,2.474999987E-3,7.287499961E-3
4.641382542E0,2.873750031E-2,-7.287499961E-3,1.704999991E-2
4.643825929E0,2.144999988E-2,-3.423750028E-2,1.828750037E-2
4.646269315E0,1.168750040E-2,-3.904999793E-2,1.581249945E-2
4.648712699E0,-9.074999951E-3,-1.952499896E-2,1.952499896E-2
4.651156159E0,-2.007500082E-2,-7.287499961E-3,1.828750037E-2
4.653599545E0,-3.849999979E-2,-1.347499993E-2,8.524999954E-3
4.656043159E0,-5.926249921E-2,-1.952499896E-2,-6.187499966E-3
4.658486535E0,-7.026249915E-2,-1.223750040E-2,-2.213750035E-2
4.660929920E0,-5.678749830E-2,1.237499993E-3,-2.694999985E-2
4.663373305E0,-2.254999988E-2,2.474999987E-3,-2.089999989E-2
4.665816764E0,1.402499992E-2,-1.099999994E-2,-1.594999991E-2
4.668260151E0,5.444999784E-2,-3.547500074E-2,-1.966249943E-2
4.670703530E0,7.273750007E-2,-5.004999787E-2,-2.089999989E-2
4.673147144E0,6.049999967E-2,-5.128749833E-2,-2.089999989E-2
4.675590530E0,4.455000162E-2,-2.571249940E-2,-1.842499897E-2
4.678033915E0,1.787499990E-3,-9.762499481E-3,-8.662499487E-3
4.680477300E0,-2.502499893E-2,9.762499481E-3,-1.113750041E-2
4.682920749E0,-3.107500076E-2,2.447500080E-2,-9.899999946E-3
4.685364136E0,-1.897500083E-2,2.199999988E-2,-3.712499980E-3
4.687807520E0,-6.737499963E-3,1.704999991E-2,-1.113750041E-2
4.690251134E0,-1.526249945E-2,1.347499993E-2,-2.089999989E-2
4.692694520E0,-3.231250122E-2,2.557500079E-2,-3.423750028E-2
4.695137915E0,-5.073750019E-2,4.152499884E-2,-4.289999977E-2
4.697581300E0,-2.749999985E-2,1.704999991E-2,-4.289999977E-2
4.700024759E0,6.737499963E-3,-1.347499993E-2,-4.895000160E-2
4.702468146E0,3.849999979E-2,-1.718750037E-2,-4.647500068E-2
4.704911531E0,5.073750019E-2,-1.223750040E-2,-3.189999983E-2
4.707355144E0,4.578749835E-2,-1.237499993E-3,-1.237499993E-2
4.709798531E0,3.244999796E-2,-0.000000000E0,1.099999994E-3
4.712241915E0,2.378750034E-2,1.457499992E-2,3.574999981E-3
4.714685300E0,2.144999988E-2,7.287499961E-3,1.333750039E-2
4.717128759E0,2.626249939E-2,-8.524999954E-3,1.952499896E-2
4.719572151E0,1.897500083E-2,-4.771250114E-2,1.828750037E-2
4.722015536E0,3.024999984E-3,-4.771250114E-2,1.209999993E-2
4.724458920E0,-2.131249942E-2,-1.471249945E-2,1.457499992E-2
4.726902534E0,-3.602499887E-2,2.474999987E-3,1.333750039E-2
4.729345920E0,-4.949999973E-2,-4.949999973E-3,-1.374999993E-4
4.731789365E0,-6.778749824E-2,-1.347499993E-2,-1.471249945E-2
4.734232751E0,-6.902500242E-2,-2.474999987E-3,-2.447500080E-2
4.736676136E0,-5.307500064E-2,1.099999994E-2,-2.571249940E-2
4.739119521E0,-1.897500083E-2,9.762499481E-3,-2.213750035E-2
4.741563134E0,1.773750037E-2,-7.287499961E-3,-1.718750037E-2
4.744006516E0,5.321250111E-2,-2.928750031E-2,-1.718750037E-2
4.746449900E0,7.026249915E-2,-4.647500068E-2,-1.842499897E-2
4.748893360E0,5.926249921E-2,-4.771250114E-2,-1.966249943E-2
4.751336746E0,3.849999979E-2,-2.928750031E-2,-1.471249945E-2
4.753780131E0,-1.787499990E-3,-1.718750037E-2,-2.474999987E-3
4.756223516E0,-2.502499893E-2,9.762499481E-3,-7.424999960E-3
4.758667129E0,-3.478749841E-2,2.076249942E-2,-6.187499966E-3
4.761110516E0,-2.749999985E-2,2.681249939E-2,-3.712499980E-3
4.763553900E0,-2.749999985E-2,3.423750028E-2,-7.424999960E-3
4.765997280E0,-4.949999973E-2,5.499999970E-2,-1.842499897E-2
4.768440739E0,-8.126249909E-2,8.428750187E-2,-2.942499891E-2
4.770884126E0,-9.459999949E-2,1.245749965E-1,-3.547500074E-2
4.773327739E0,-7.150000334E-2,1.135749966E-1,-2.942499891E-2
4.775770895E0,-2.502499893E-2,1.160499975E-1,-3.189999983E-2
4.778214495E0,1.168750040E-2,1.282874942E-1,-2.818750031E-2
4.780657881E0,2.144999988E-2,1.478125006E-1,-1.237499993E-2
4.783101341E0,7.974999957E-3,1.880999953E-1,1.581249945E-2
4.785544727E0,-5.499999970E-4,2.578125000E-1,3.904999793E-2
4.787988112E0,-1.649999991E-2,3.823874891E-1,5.362499878E-2
4.790431497E0,-3.478749841E-2,5.374875069E-1,6.710000336E-2
4.792875110E0,-6.531249732E-2,7.024874687E-1,7.933750004E-2
4.795318497E0,-1.300749928E-1,8.258249760E-1,8.786249906E-2
4.797761881E0,-2.205500007E-1,8.881124854E-1,9.762500226E-2
4.800205266E0,-3.768875003E-1,7.915874720E-1,1.025749967E-1
4.802648712E0,-5.992249846E-1,5.997750163E-1,1.086250022E-1
4.805092098E0,-8.777999878E-1,5.069624782E-1,1.258125007E-1
4.807535483E0,-1.199137449E0,4.251500070E-1,1.501500010E-1
4.809979096E0,-1.415287495E0,2.980999947E-1,1.379124969E-1
4.812422483E0,-1.527762532E0,2.711499929E-1,1.123374999E-1
4.814865886E0,-1.585099936E0,3.481499851E-1,1.183874980E-1
4.817309346E0,-1.613287449E0,4.386250079E-1,1.648624986E-1
4.819752733E0,-1.636525035E0,4.996750057E-1,2.149125040E-1
4.822196117E0,-1.673099995E0,5.570124984E-1,2.551999986E-1
4.824639502E0,-1.745149970E0,6.524375081E-1,2.881999910E-1
4.827083139E0,-1.794100046E0,7.159624696E-1,3.371500075E-1
4.829526526E0,-1.730574965E0,6.792500019E-1,4.226749837E-1
4.831969910E0,-1.732912540E0,7.635374665E-1,5.350124836E-1
4.834413370E0,-1.874675035E0,9.516375065E-1,6.120125055E-1
4.836856757E0,-1.958962440E0,1.005399942E0,6.095374823E-1
4.839300160E0,-1.923624992E0,9.065374732E-1,5.740625262E-1
4.841743545E0,-1.976150036E0,9.626374841E-1,6.144874692E-1
4.844187158E0,-2.155725002E0,1.180162549E0,7.145875096E-1
4.846630545E0,-2.244824886E0,1.221687436E0,7.280625105E-1
4.849073929E0,-2.279062510E0,1.161875010E0,7.085375190E-1
4.851517379E0,-2.369537592E0,1.683550000E0,5.985375047E-1
4.853960766E0,-2.243587494E0,3.431725025E0,1.586750001E-1
4.856404150E0,-2.666399956E0,3.122624874E0,1.611499935E-1
4.858847764E0,-2.437875032E0,3.252150059E0,6.338749826E-2
4.861291150E0,-2.132487535E0,3.386625051E0,3.574999981E-3
4.863734555E0,-2.474587440E0,3.158099890E0,-1.504250020E-1
4.866177940E0,-2.657875061E0,3.363387585E0,-4.166249931E-1
4.868621399E0,-2.696924925E0,3.116575003E0,-3.848625124E-1
4.871064786E0,-2.594212532E0,3.503912449E0,-4.643374979E-1
4.873508165E0,-2.854500055E0,3.472012520E0,-5.400999784E-1
4.875951550E0,-2.990074873E0,3.371912479E0,-5.425750017E-1
4.878395163E0,-2.277824879E0,2.582662582E0,-5.559124947E-1
4.880838550E0,-5.906999707E-1,1.230212450E0,-6.194375157E-1
4.883282009E0,-3.903625011E-1,8.025875092E-1,-6.744375229E-1
4.885725304E0,-1.015849948E0,2.804999985E-2,-5.046250224E-1
4.888168764E0,-1.272424936E0,2.675749958E-1,-4.472874999E-1
4.890612150E0,-1.467812538E0,2.798124850E-1,-5.241500139E-1
4.893055764E0,-1.482524991E0,3.396250010E-1,-6.854375005E-1
4.895499150E0,-1.527762532E0,1.290162444E0,-5.461499691E-1
4.897942550E0,-1.041424990E0,5.974375010E-1,-4.460499883E-1
4.900386010E0,-5.296499729E-1,2.333374918E-1,-3.665750027E-1
4.902829396E0,-6.309875250E-1,6.645374894E-1,-4.386250079E-1
4.905272781E0,-7.189875245E-1,1.808124930E-1,-6.451500058E-1
4.907716165E0,-8.277499676E-1,2.626250088E-1,-8.369625211E-1
4.910159788E0,-7.617499828E-1,1.295250058E-1,-9.444875121E-1
4.912603174E0,-7.079874873E-1,-1.124750003E-1,-1.096012473E0
4.915046559E0,-5.209875107E-1,7.328750193E-2,-1.224300027E0
4.917489944E0,-5.637499690E-1,5.802500248E-1,-1.238875031E0
4.919933403E0,-8.606125116E-1,1.003062487E0,-1.174112439E0
4.922376795E0,-8.350374699E-1,1.098350048E0,-1.100824952E0
4.924820179E0,-6.639875174E-1,8.978750110E-1,-1.092299938E0
4.927263793E0,-6.920375228E-1,6.951999664E-1,-1.082537532E0
4.929707179E0,-7.750874758E-1,4.947249889E-1,-1.032487512E0
4.932150564E0,-7.030375004E-1,5.191999674E-1,-9.920625091E-1
4.934594038E0,-5.906999707E-1,6.511999965E-1,-9.272999763E-1
4.937037424E0,-5.821750164E-1,5.570124984E-1,-8.650124669E-1
4.939480809E0,-6.957499981E-1,5.264874697E-1,-8.296750188E-1
4.941924193E0,-6.847500205E-1,6.462500095E-1,-7.966749668E-1
4.944367807E0,-6.212249994E-1,7.427750230E-1,-7.563874722E-1
4.946811209E0,-7.202249765E-1,6.402000189E-1,-6.841999888E-1
4.949254594E0,-8.435624838E-1,3.946250081E-1,-5.438125134E-1
4.951698054E0,-5.759875178E-1,5.766749978E-1,-4.118124843E-1
4.954141440E0,-4.574624896E-1,3.531000018E-1,-2.590500116E-1
4.956584825E0,-3.744125068E-1,4.043875039E-1,-1.491875052E-1
4.959028229E0,-2.913624942E-1,3.408625126E-1,-8.442500234E-2
4.961471842E0,-2.375999987E-1,3.738625050E-1,-3.066249937E-2
4.963915229E0,-1.801249981E-1,3.933874965E-1,-3.712499980E-3
4.966358688E0,-1.495999992E-1,4.079625010E-1,-1.374999993E-4
4.968802075E0,-1.472624987E-1,3.786749840E-1,-1.471249945E-2
4.971245464E0,-1.570249945E-1,3.188624978E-1,-3.189999983E-2
4.973688849E0,-1.777874976E-1,2.333374918E-1,-5.871250108E-2
4.976132462E0,-1.948374957E-1,1.710499972E-1,-9.666249901E-2
4.978575849E0,-2.241249979E-1,1.551000029E-1,-1.259499937E-1
4.981019234E0,-2.363625020E-1,1.795749962E-1,-1.649999917E-1
4.983462613E0,-2.583625019E-1,2.040500045E-1,-1.979999989E-1
4.985906073E0,-2.743124962E-1,2.271499932E-1,-2.237125039E-1
4.988349459E0,-2.815999985E-1,2.028124928E-1,-2.407625020E-1
4.990792844E0,-2.705999911E-1,1.845249981E-1,-2.480500042E-1
4.993236234E0,-2.583625019E-1,1.405249983E-1,-2.468124926E-1
4.995679847E0,-2.523125112E-1,9.528750181E-2,-2.419999987E-1
4.998123234E0,-2.205500007E-1,5.857500061E-2,-2.419999987E-1
5.000566693E0,-1.715999991E-1,2.681249939E-2,-2.347124964E-1
5.003010003E0,-1.288374960E-1,-6.187499966E-3,-2.260500044E-1
5.005453447E0,-1.044999957E-1,-6.599999964E-2,-2.065249979E-1
