"Time (s)","Acceleration x (m/s^2)","Acceleration y (m/s^2)","Acceleration z (m/s^2)"
8.470586000E-3,-4.570500255E-1,-3.970500231E-1,9.513000488E0
1.091445500E-2,-5.530500412E-1,-3.529500067E-1,9.552000046E0
1.336082700E-2,-6.079500318E-1,-3.180000186E-1,9.583050728E0
1.580646000E-2,-7.009500265E-1,-2.550000250E-1,9.658950806E0
1.834484500E-2,-8.020500541E-1,-1.879500151E-1,9.742950439E0
2.078792300E-2,-9.240000248E-1,-7.800000161E-2,9.834000587E0
2.323069300E-2,-1.021950006E0,3.600000218E-2,9.892050743E0
2.567346200E-2,-1.081950068E0,1.510500014E-1,9.976050377E0
2.811624500E-2,-1.120050073E0,2.230500132E-1,1.003095055E1
3.055909100E-2,-1.120050073E0,2.800500095E-1,1.004700089E1
3.300186100E-2,-1.137000084E0,3.210000098E-1,1.001895046E1
3.544485900E-2,-1.141950011E0,3.520500064E-1,9.931950569E0
3.788770700E-2,-1.150950074E0,3.690000176E-1,9.886950493E0
4.033080000E-2,-1.171050072E0,3.300000131E-1,9.838950157E0
4.277387700E-2,-1.195050001E0,3.259500265E-1,9.772050858E0
4.521718400E-2,-1.222950101E0,3.109500110E-1,9.729000092E0
4.766034000E-2,-1.221000075E0,2.490000129E-1,9.700050354E0
5.010364600E-2,-1.240050077E0,2.299500108E-1,9.682950020E0
5.254704300E-2,-1.222950101E0,1.840500087E-1,9.657000542E0
5.499042800E-2,-1.210950017E0,1.699500084E-1,9.595050812E0
5.743381300E-2,-1.173000097E0,1.410000026E-1,9.496950150E0
5.987719700E-2,-1.105949998E0,8.100000024E-2,9.436950684E0
6.232058200E-2,-1.048950076E0,5.505000427E-2,9.388950348E0
6.476398500E-2,-9.310500622E-1,-9.000000544E-3,9.379050255E0
6.720737000E-2,-8.260500431E-1,-4.200000316E-2,9.397950172E0
6.965075500E-2,-7.200000286E-1,-1.090500057E-1,9.457950592E0
7.209414000E-2,-6.250500083E-1,-1.909500062E-1,9.556950569E0
7.453752500E-2,-5.910000205E-1,-2.650500238E-1,9.670950890E0
7.698089400E-2,-5.460000038E-1,-3.490500152E-1,9.813000679E0
7.942427800E-2,-5.190000534E-1,-4.279500246E-1,9.930000305E0
8.186743200E-2,-5.269500017E-1,-5.040000081E-1,1.003800011E1
8.431081500E-2,-5.269500017E-1,-5.470499992E-1,1.009500027E1
8.675443000E-2,-4.860000312E-1,-6.240000129E-1,1.012905025E1
8.919760000E-2,-4.159500301E-1,-6.720000505E-1,1.016895008E1
9.164121300E-2,-3.370500207E-1,-7.219500542E-1,1.018095016E1
9.408436900E-2,-2.659500241E-1,-7.440000176E-1,1.016505051E1
9.652798300E-2,-2.419500053E-1,-7.819500566E-1,1.011000061E1
9.897136900E-2,-1.939500123E-1,-7.960500121E-1,1.005495071E1
1.014145360E-1,-1.510500014E-1,-8.179500103E-1,9.967950821E0
1.038579190E-1,-7.905000448E-2,-8.179500103E-1,9.904050827E0
1.063013030E-1,-9.105000645E-2,-8.280000687E-1,9.877050400E0
1.087446880E-1,-9.300000221E-2,-7.920000553E-1,9.834000587E0
1.111880760E-1,-1.319999993E-1,-7.720500231E-1,9.805950165E0
1.136314600E-1,-2.490000129E-1,-7.009500265E-1,9.798000336E0
1.160748450E-1,-3.090000153E-1,-6.550500393E-1,9.838950157E0
1.185184600E-1,-3.919500113E-1,-5.980500579E-1,9.858000755E0
1.209616160E-1,-4.620000124E-1,-5.190000534E-1,9.829050064E0
1.234050030E-1,-4.759500325E-1,-4.249500334E-1,9.736050606E0
1.258483870E-1,-4.930500090E-1,-3.559500277E-1,9.613950729E0
1.282917720E-1,-4.930500090E-1,-3.319500089E-1,9.535050392E0
1.307351570E-1,-5.290500522E-1,-2.719500065E-1,9.454050064E0
1.331785410E-1,-5.839500427E-1,-2.149500102E-1,9.397950172E0
1.356219060E-1,-6.270000339E-1,-1.950000077E-1,9.346050262E0
1.380652910E-1,-6.730500460E-1,-1.500000060E-1,9.298050880E0
1.405086760E-1,-7.200000286E-1,-1.020000055E-1,9.300000191E0
1.429520610E-1,-7.110000253E-1,-6.599999964E-2,9.286050797E0
1.453954460E-1,-7.519500256E-1,-4.005000368E-2,9.244950294E0
1.478388100E-1,-7.950000167E-1,-1.020000055E-1,9.171000481E0
1.502821950E-1,-9.000000358E-1,-3.100500107E-1,8.950950623E0
1.527255790E-1,-1.105949998E0,-2.839500010E-1,9.007950783E0
1.551689630E-1,-1.171050072E0,-2.340000123E-1,9.208950043E0
1.576123470E-1,-1.015050054E0,-2.029500157E-1,9.484950066E0
1.600557110E-1,-7.110000253E-1,-1.740000099E-1,9.801000595E0
1.624990210E-1,-4.810500145E-1,-1.759500057E-1,1.003500080E1
1.649424800E-1,-2.970000207E-1,-2.100000083E-1,1.016205025E1
1.673857900E-1,-2.659500241E-1,-2.650500238E-1,1.021995068E1
1.698292500E-1,-2.820000052E-1,-3.460500240E-1,1.029600048E1
1.722725340E-1,-3.760500252E-1,-4.249500334E-1,1.034205055E1
1.747159940E-1,-5.050500035E-1,-5.710500479E-1,1.030095005E1
1.771593800E-1,-5.599500537E-1,-9.300000668E-1,1.021305084E1
1.796027650E-1,-5.119500160E-1,-1.096050024E0,1.016205025E1
1.820461500E-1,-4.020000100E-1,-1.066950083E0,1.014600086E1
1.844894240E-1,-2.560500205E-1,-9.690000415E-1,1.021500015E1
1.869328070E-1,-2.149500102E-1,-8.470500112E-1,1.033500004E1
1.893761920E-1,-3.709500134E-1,-6.790500283E-1,1.043295002E1
1.918195760E-1,-6.730500460E-1,-5.160000324E-1,1.042095089E1
1.942629610E-1,-9.120000601E-1,-2.959500253E-1,1.028205013E1
1.967064020E-1,-1.048950076E0,-1.020000055E-1,1.015695095E1
1.991497120E-1,-1.104000092E0,4.800000042E-2,1.011405087E1
2.015931720E-1,-1.068000078E0,1.650000066E-1,1.013805008E1
2.040364810E-1,-1.008000016E0,1.960500032E-1,1.018095016E1
2.064799410E-1,-9.220500588E-1,1.990500093E-1,1.014600086E1
2.089232320E-1,-8.710500598E-1,1.909500062E-1,1.009305000E1
2.113666140E-1,-8.899500370E-1,2.029500157E-1,1.003305054E1
2.138099990E-1,-9.240000248E-1,2.419500053E-1,1.000695038E1
2.162533830E-1,-9.480000734E-1,2.299500108E-1,9.978000641E0
2.186967680E-1,-9.550500512E-1,2.659500241E-1,9.954000473E0
2.211401480E-1,-9.769500494E-1,2.800500095E-1,9.861000061E0
2.235835330E-1,-9.550500512E-1,2.179500163E-1,9.730950356E0
2.260269180E-1,-9.480000734E-1,1.170000061E-1,9.640050888E0
2.284703030E-1,-9.169500470E-1,8.805000782E-2,9.628050804E0
2.309136880E-1,-9.600000381E-1,8.595000207E-2,9.655050278E0
2.333570540E-1,-9.790500402E-1,9.105000645E-2,9.658950806E0
2.358004380E-1,-1.003050089E0,1.290000081E-1,9.669000626E0
2.382438220E-1,-1.021950006E0,1.890000105E-1,9.661950111E0
2.406872060E-1,-1.045950055E0,1.890000105E-1,9.609000206E0
2.431305900E-1,-1.065000057E0,2.010000050E-1,9.670950890E0
2.455739650E-1,-1.051050067E0,2.299500108E-1,9.784050941E0
2.480173500E-1,-9.930000305E-1,2.779500186E-1,9.846000671E0
2.504607350E-1,-9.550500512E-1,3.589500189E-1,9.853050232E0
2.529041200E-1,-9.169500470E-1,4.519500136E-1,9.925050735E0
2.553475050E-1,-8.830500245E-1,5.479500294E-1,1.003500080E1
2.577908760E-1,-8.809500337E-1,5.869500041E-1,1.009800053E1
2.602342610E-1,-8.520000577E-1,6.300000548E-1,1.012200069E1
2.626776450E-1,-7.780500650E-1,6.060000062E-1,1.012395000E1
2.651210290E-1,-6.820500493E-1,5.340000391E-1,1.009800053E1
2.675644130E-1,-5.479500294E-1,4.519500136E-1,1.008300018E1
2.700077820E-1,-4.950000346E-1,1.120500043E-1,1.017405033E1
2.724511670E-1,-3.540000021E-1,7.395000011E-2,1.022700024E1
2.748945520E-1,-2.059500068E-1,2.400000021E-2,1.021500015E1
2.773377070E-1,-4.500000179E-2,-1.050000079E-3,1.016895008E1
2.797813210E-1,7.304999977E-2,-3.000000119E-2,1.009005070E1
2.822244620E-1,9.705000371E-2,-2.100000158E-2,9.918000221E0
2.846680760E-1,5.700000376E-2,1.200000010E-2,9.766950607E0
2.871112320E-1,2.805000171E-2,8.805000782E-2,9.628050804E0
2.895548450E-1,6.000000052E-3,7.905000448E-2,9.544950485E0
2.919982220E-1,-1.395000052E-2,7.695000619E-2,9.468000412E0
2.944416060E-1,-5.505000427E-2,1.150500029E-1,9.340950012E0
2.968849910E-1,-2.100000158E-2,1.120500043E-1,9.348000526E0
2.993283760E-1,2.595000155E-2,9.105000645E-2,9.421950340E0
3.017715290E-1,2.595000155E-2,4.800000042E-2,9.540000916E0
3.042148930E-1,-3.105000220E-2,3.795000166E-2,9.597000122E0
3.066582780E-1,-9.105000645E-2,2.895000204E-2,9.604050636E0
3.091016620E-1,-1.579500139E-1,3.795000166E-2,9.757950783E0
3.115450470E-1,-2.340000123E-1,2.895000204E-2,9.885000229E0
3.139884320E-1,-3.060000241E-1,3.105000220E-2,9.991950035E0
3.164318260E-1,-4.039500058E-1,7.200000435E-2,1.003500080E1
3.188752110E-1,-4.909500182E-1,1.360500008E-1,9.958950043E0
3.213185960E-1,-5.410500169E-1,2.029500157E-1,9.850950241E0
3.237619810E-1,-5.340000391E-1,2.509500086E-1,9.765000343E0
3.262053660E-1,-4.950000346E-1,3.349500299E-1,9.805950165E0
3.286487510E-1,-5.239500403E-1,3.949500322E-1,1.008600044E1
3.310921360E-1,-6.370500326E-1,4.519500136E-1,9.934950829E0
3.335355200E-1,-6.730500460E-1,5.050500035E-1,9.778950691E0
3.359789040E-1,-7.200000286E-1,5.029500127E-1,9.805950165E0
3.384223020E-1,-9.120000601E-1,4.759500325E-1,9.529950142E0
3.408656860E-1,-1.075049996E0,4.279500246E-1,9.262050629E0
3.433090710E-1,-1.104000092E0,4.050000310E-1,9.348000526E0
3.457524560E-1,-1.033950090E0,4.069500268E-1,9.517950058E0
3.481958410E-1,-9.289500713E-1,3.780000210E-1,9.721950531E0
3.506392260E-1,-8.470500112E-1,3.300000131E-1,9.862950325E0
3.530828400E-1,-7.369500399E-1,2.389500141E-1,9.987000465E0
3.555259960E-1,-6.850500107E-1,1.939500123E-1,1.002795029E1
3.579693790E-1,-6.300000548E-1,1.360500008E-1,1.001400089E1
3.604127630E-1,-6.199500561E-1,1.150500029E-1,9.952050209E0
3.628561530E-1,-6.010500193E-1,1.170000061E-1,9.919950485E0
3.652995380E-1,-5.839500427E-1,1.890000105E-1,9.898950577E0
3.677429220E-1,-5.839500427E-1,2.509500086E-1,9.946950912E0
3.701863070E-1,-5.509500504E-1,3.400500119E-1,1.005900002E1
3.726296920E-1,-5.580000281E-1,3.780000210E-1,1.003095055E1
3.750731060E-1,-5.980500579E-1,4.210500121E-1,1.013805008E1
3.775164910E-1,-7.039500475E-1,4.480500221E-1,1.009005070E1
3.799598760E-1,-8.809500337E-1,4.840500355E-1,9.886950493E0
3.824032610E-1,-1.084050059E0,5.149500370E-1,9.643050194E0
3.848466460E-1,-1.317000031E0,6.030000448E-1,9.409950256E0
3.872900250E-1,-1.483950019E0,5.839500427E-1,9.259950638E0
3.897334090E-1,-1.585050106E0,6.030000448E-1,9.231000900E0
3.921767930E-1,-1.602000117E0,6.319500208E-1,9.384000778E0
3.946201770E-1,-1.495950103E0,6.370500326E-1,9.664050102E0
3.970635620E-1,-1.411950111E0,5.629500151E-1,9.856050491E0
3.995069610E-1,-1.302000046E0,4.860000312E-1,9.970950127E0
4.019503460E-1,-1.201950073E0,4.210500121E-1,1.011705017E1
4.043937310E-1,-1.105949998E0,3.229500055E-1,1.008300018E1
4.068371160E-1,-9.720000625E-1,2.629500031E-1,1.009305000E1
4.092805010E-1,-8.520000577E-1,2.200500071E-1,1.011195087E1
4.117238850E-1,-7.180500627E-1,1.770000011E-1,1.008600044E1
4.141672690E-1,-6.199500561E-1,1.240500063E-1,1.005900002E1
4.166106530E-1,-4.950000346E-1,1.030500084E-1,1.002105045E1
4.190540370E-1,-4.380000234E-1,4.800000042E-2,1.000395012E1
4.214974220E-1,-3.610500097E-1,-2.295000106E-2,9.955950737E0
4.239408220E-1,-1.960500032E-1,-7.304999977E-2,9.931950569E0
4.263842070E-1,-2.100000158E-2,-1.450500041E-1,9.886950493E0
4.288275920E-1,4.905000329E-2,-2.190000117E-1,9.861000061E0
4.312709770E-1,4.905000329E-2,-2.820000052E-1,9.853050232E0
4.337143620E-1,-4.995000362E-2,-3.409500122E-1,9.894000053E0
4.361577420E-1,-1.510500014E-1,-3.799500167E-1,9.994950294E0
4.386011260E-1,-2.490000129E-1,-4.399500191E-1,1.011000061E1
4.410445100E-1,-3.780000210E-1,-5.140500069E-1,1.029195023E1
4.434878940E-1,-3.589500189E-1,-6.019500494E-1,1.046400070E1
4.459312780E-1,-3.520500064E-1,-6.840000153E-1,1.057200050E1
4.483745830E-1,-2.820000052E-1,-7.459500432E-1,1.067700005E1
4.508180420E-1,-1.770000011E-1,-7.890000343E-1,1.080600071E1
4.532614290E-1,-5.205000192E-2,-7.870500088E-1,1.089705086E1
4.557048140E-1,5.895000324E-2,-7.699500322E-1,1.101195049E1
4.581481980E-1,1.669500023E-1,-7.800000310E-1,1.114605045E1
4.605915830E-1,2.629500031E-1,-7.080000043E-1,1.129200077E1
4.630349670E-1,3.250500262E-1,-6.430500150E-1,1.138800049E1
4.654783510E-1,3.750000298E-1,-5.830500126E-1,1.137405014E1
4.679217350E-1,3.420000076E-1,-4.800000191E-1,1.128495026E1
4.703651190E-1,2.239500135E-1,-3.250500262E-1,1.112205029E1
4.728085040E-1,1.330500096E-1,-1.999500096E-1,1.094805050E1
4.752518890E-1,1.395000052E-2,-9.705000371E-2,1.076295090E1
4.776952740E-1,-1.170000061E-1,-6.599999964E-2,1.069095039E1
4.801386590E-1,-2.629500031E-1,-4.695000127E-2,1.069095039E1
4.825819670E-1,-4.279500246E-1,-9.195000678E-2,1.072695065E1
4.850253450E-1,-6.130500436E-1,-1.710000038E-1,1.078995037E1
4.874687300E-1,-7.350000143E-1,-3.319500089E-1,1.077795029E1
4.899121910E-1,-7.780500650E-1,-4.200000167E-1,1.069095039E1
4.923555780E-1,-7.660500407E-1,-4.950000346E-1,1.061205006E1
4.947989620E-1,-7.999500632E-1,-4.920000136E-1,1.057395077E1
4.972423620E-1,-7.249500155E-1,-4.350000322E-1,1.052895069E1
4.996857470E-1,-5.239500403E-1,-3.340500295E-1,1.052895069E1
5.021291310E-1,1.260000020E-1,-3.409500122E-1,1.079700089E1
5.045725160E-1,7.339500189E-1,-2.770500183E-1,1.093305016E1
5.070159010E-1,9.090000391E-1,-2.220000178E-1,1.083495045E1
5.094592750E-1,8.250000477E-1,-3.495000303E-2,1.066005039E1
5.119026590E-1,6.360000372E-1,6.195000187E-2,1.057200050E1
5.143460430E-1,3.150000274E-1,2.029500157E-1,1.046895027E1
5.167894270E-1,1.450500041E-1,2.700000107E-1,1.045695019E1
5.192328120E-1,3.000000119E-2,3.300000131E-1,1.047600079E1
5.216761210E-1,3.705000132E-2,3.810000122E-1,1.048995018E1
5.241195810E-1,1.210500076E-1,4.429500103E-1,1.051905060E1
5.265628910E-1,1.260000020E-1,4.960500300E-1,1.057395077E1
5.290063500E-1,5.205000192E-2,6.510000229E-1,1.065105057E1
5.314497220E-1,-1.429500133E-1,8.140500188E-1,1.073205090E1
5.338931060E-1,-2.850000262E-1,9.529500604E-1,1.081095028E1
5.363364910E-1,-3.469500244E-1,1.048950076E0,1.089495087E1
5.387798760E-1,-3.760500252E-1,1.101000071E0,1.087305069E1
5.412232600E-1,-3.090000153E-1,1.135050058E0,1.080405045E1
5.436666440E-1,-3.210000098E-1,1.204050064E0,1.067895031E1
5.461100280E-1,-4.600500166E-1,1.314000010E0,1.045395088E1
5.485534120E-1,-5.269500017E-1,1.393050075E0,1.019595051E1
5.509967970E-1,-5.290500522E-1,1.486950040E0,1.003095055E1
5.534401820E-1,-5.220000148E-1,1.543950081E0,9.886950493E0
5.558835620E-1,-4.930500090E-1,1.627950072E0,9.832050323E0
5.583268710E-1,-4.330500066E-1,1.683000088E0,9.826950073E0
5.607702530E-1,-4.189500213E-1,1.756950140E0,9.834000587E0
5.632136380E-1,-3.760500252E-1,1.815000057E0,9.874950409E0
5.656570230E-1,-3.160500228E-1,1.798050046E0,9.885000229E0
5.681004600E-1,-2.269500047E-1,1.759950042E0,9.838950157E0
5.705438470E-1,-1.290000081E-1,1.684950113E0,9.742950439E0
5.729872310E-1,5.700000376E-2,1.591950059E0,9.595050812E0
5.754306160E-1,2.790000141E-1,1.522950053E0,9.427050591E0
5.778740010E-1,5.470499992E-1,1.386000037E0,9.196950912E0
5.803173800E-1,8.280000687E-1,1.326000094E0,8.991000175E0
5.827607650E-1,1.125000000E0,1.231050014E0,8.821050644E0
5.852041490E-1,1.420950055E0,1.092000008E0,8.701950073E0
5.876475330E-1,1.645950079E0,1.009950042E0,8.686950684E0
5.900909170E-1,1.804050088E0,8.950500488E-1,8.698950768E0
5.925342870E-1,1.897950053E0,8.070000410E-1,8.749950409E0
5.949776720E-1,1.872000098E0,6.990000606E-1,8.773950577E0
5.974210570E-1,1.824000120E0,6.540000439E-1,8.756999969E0
5.998644420E-1,1.705950022E0,6.420000196E-1,8.742000580E0
6.023078270E-1,1.560000062E0,6.540000439E-1,8.710950851E0
6.047511980E-1,1.441050053E0,6.940500140E-1,8.677950859E0
6.071945830E-1,1.285050035E0,7.180500627E-1,8.593950272E0
6.096378910E-1,1.153050065E0,7.420500517E-1,8.447999954E0
6.120813500E-1,1.077000022E0,8.239500523E-1,8.263950348E0
6.145246600E-1,1.038000107E0,9.409500360E-1,8.158050537E0
6.169681200E-1,1.033950090E0,1.045950055E0,8.095950127E0
6.194115060E-1,9.949500561E-1,1.164000034E0,8.122050285E0
6.218548910E-1,9.469500184E-1,1.309950113E0,8.248950005E0
6.242982750E-1,8.899500370E-1,1.360050082E0,8.515049934E0
6.267416600E-1,7.290000319E-1,1.405050039E0,8.812050819E0
6.291850490E-1,5.790000558E-1,1.441050053E0,9.007950783E0
6.316284330E-1,3.990000188E-1,1.501050115E0,9.037050247E0
6.340718170E-1,1.690500081E-1,1.591950059E0,8.884050369E0
6.365152010E-1,-1.050000042E-1,1.735950112E0,8.668050766E0
6.389585850E-1,-3.370500207E-1,1.882050037E0,8.391000748E0
6.414019850E-1,-6.510000229E-1,2.068950176E0,8.182050705E0
6.438453700E-1,-8.980500698E-1,2.241000175E0,8.041049957E0
6.462887550E-1,-1.135050058E0,2.404050112E0,7.983000278E0
6.487321400E-1,-1.345050097E0,2.535000086E0,7.975950241E0
6.511755050E-1,-1.561050057E0,2.638050079E0,7.948050499E0
6.536188900E-1,-1.759950042E0,2.698050022E0,7.939950466E0
6.560622740E-1,-1.980000138E0,2.715000153E0,7.933050156E0
6.585056580E-1,-2.179050207E0,2.719950199E0,7.969050407E0
6.609490420E-1,-2.329050064E0,2.761050224E0,7.948050499E0
6.633924410E-1,-2.430000067E0,2.811000109E0,7.942950249E0
6.658358260E-1,-2.569050074E0,2.854050159E0,7.918950558E0
6.682792110E-1,-2.677050114E0,2.952000141E0,7.861050606E0
6.707225960E-1,-2.740950108E0,3.081000090E0,7.891950607E0
6.731659810E-1,-2.799000025E0,3.189000130E0,8.034000397E0
6.756093800E-1,-2.895000219E0,3.277950048E0,8.203949928E0
6.780527650E-1,-3.021000147E0,3.354000092E0,8.367000580E0
6.804961500E-1,-3.144000053E0,3.400050163E0,8.520000458E0
6.829395340E-1,-3.223050117E0,3.436050177E0,8.668050766E0
6.853829180E-1,-3.313950062E0,3.442950249E0,8.709000587E0
6.878263020E-1,-3.352050066E0,3.426000118E0,8.698950768E0
6.902696860E-1,-3.349050045E0,3.451950073E0,8.692049980E0
6.927130710E-1,-3.325050116E0,3.496050119E0,8.628000259E0
6.951564560E-1,-3.280050039E0,3.508050203E0,8.532000542E0
6.975998410E-1,-3.270000219E0,3.526950121E0,8.493000031E0
7.000432500E-1,-3.253950119E0,3.487950087E0,8.524950027E0
7.024866350E-1,-3.270000219E0,3.439950228E0,8.710950851E0
7.049300200E-1,-3.234000206E0,3.349950075E0,8.934000015E0
7.073734050E-1,-3.202950239E0,3.201000214E0,9.091950417E0
7.098167890E-1,-3.165000200E0,3.040950060E0,9.171000481E0
7.122601780E-1,-3.073950052E0,2.890050173E0,9.154050827E0
7.147035620E-1,-2.941950083E0,2.788950205E0,9.006000519E0
7.171469460E-1,-2.839050055E0,2.803950071E0,8.812050819E0
7.195903310E-1,-3.373050213E0,3.177000046E0,8.982000351E0
7.220337160E-1,-7.278000355E0,4.848000050E0,1.055505085E1
7.244771250E-1,-1.405695057E1,7.053000450E0,1.239405060E1
7.269205100E-1,-1.090305042E1,6.442950249E0,1.245795059E1
7.293638950E-1,-7.195050240E0,6.043050289E0,1.180200100E1
7.318072800E-1,-5.916000366E0,5.989950180E0,1.005000019E1
7.342506640E-1,-6.571950436E0,6.226950169E0,8.380949974E0
7.366940480E-1,-6.747000217E0,6.262950420E0,7.440000534E0
7.391374320E-1,-5.622000217E0,6.024000168E0,6.987000465E0
7.415808160E-1,-4.384050369E0,5.653050423E0,6.742950439E0
7.440242010E-1,-3.910050154E0,5.386950493E0,6.523050308E0
7.464675860E-1,-3.936000109E0,5.097000122E0,6.388950348E0
7.489109900E-1,-4.009950161E0,4.788000107E0,6.216000080E0
7.513543750E-1,-4.120050430E0,4.549050331E0,5.962950230E0
7.537977600E-1,-4.195050240E0,4.398000240E0,5.580000401E0
7.562411450E-1,-4.305000305E0,4.317000389E0,5.175000191E0
7.586845300E-1,-4.333050251E0,4.273950100E0,4.768050194E0
7.611279140E-1,-4.270950317E0,4.273950100E0,4.432950020E0
7.635715280E-1,-4.219050407E0,4.278000355E0,4.207950115E0
7.660146830E-1,-4.045950413E0,4.216050148E0,4.118999958E0
7.684580660E-1,-3.876000166E0,4.101000309E0,4.180950165E0
7.709014510E-1,-3.709050179E0,3.952950239E0,4.432950020E0
7.733448450E-1,-3.484050274E0,3.769050121E0,4.845000267E0
7.757882300E-1,-3.285000086E0,3.630000114E0,5.314050198E0
7.782316150E-1,-3.160050154E0,3.546000242E0,5.824050426E0
7.806749990E-1,-3.079050064E0,3.450000048E0,6.339000225E0
7.831183840E-1,-2.985000134E0,3.394950151E0,6.904050350E0
7.855617880E-1,-2.713050127E0,2.986050129E0,7.270050526E0
7.880051730E-1,-2.454000235E0,1.828950047E0,7.636050224E0
7.904485580E-1,-2.799000025E0,1.480500102E-1,8.853000641E0
7.928919430E-1,-3.418950081E0,-1.579050064E0,1.172595024E1
7.953353280E-1,-4.210950375E0,-2.926950216E0,1.245600033E1
7.977787180E-1,-3.643950224E0,-2.520000219E0,1.158405018E1
8.002223310E-1,-2.092050076E0,-1.144050002E0,1.042800045E1
8.026654870E-1,-7.180500627E-1,5.310000181E-1,9.187950134E0
8.051091000E-1,-2.220000178E-1,1.968000054E0,7.869000435E0
8.075524870E-1,-4.999500215E-1,2.941950083E0,6.553950310E0
8.099958750E-1,-1.183050036E0,3.553050280E0,5.509950161E0
8.124392600E-1,-1.846050143E0,4.044000149E0,4.849050045E0
8.148826450E-1,-2.302950144E0,4.477050304E0,4.579050064E0
8.173260290E-1,-2.434950113E0,4.879050255E0,4.618950367E0
8.197694140E-1,-2.478000164E0,5.230950356E0,4.873050213E0
8.222127980E-1,-2.406000137E0,5.445000172E0,5.247000217E0
8.246561820E-1,-2.047049999E0,5.370000362E0,5.412000179E0
8.270995660E-1,-1.723950028E0,5.095050335E0,5.401950359E0
8.295429500E-1,-1.554000020E0,4.575000286E0,5.616000175E0
8.319863400E-1,-1.489050031E0,4.044000149E0,6.235950470E0
8.344297250E-1,-1.855050087E0,3.735000134E0,7.201050282E0
8.368728800E-1,-2.538000107E0,3.607950211E0,8.460000038E0
8.393162630E-1,-3.250950098E0,3.595950127E0,9.796050072E0
8.417596480E-1,-3.517050266E0,3.601050138E0,1.097895050E1
8.442030750E-1,-3.358950138E0,3.583950281E0,1.193400097E1
8.466466910E-1,-2.965950251E0,3.505050182E0,1.260195065E1
8.490898470E-1,-2.629050016E0,3.498000145E0,1.291800022E1
8.515334600E-1,-2.514000177E0,3.510000229E0,1.293705082E1
8.539766160E-1,-2.605050087E0,3.625050068E0,1.267095089E1
8.564202340E-1,-2.782050133E0,3.835950136E0,1.216905022E1
8.588633900E-1,-2.964000225E0,4.027050018E0,1.165395069E1
8.613070030E-1,-3.253950119E0,4.105950356E0,1.118700027E1
8.637503900E-1,-3.736950159E0,3.931050301E0,1.073205090E1
8.661937750E-1,-3.178950071E0,3.831000090E0,1.018095016E1
8.686371590E-1,-2.779950142E0,3.687000275E0,9.697950363E0
8.710805440E-1,-2.695950031E0,3.610050201E0,9.240000725E0
8.735239290E-1,-2.587950230E0,3.546000242E0,8.862000465E0
8.759673130E-1,-2.326950073E0,3.514950275E0,8.616000175E0
8.784106980E-1,-1.942050099E0,3.498000145E0,8.520000458E0
8.808540680E-1,-1.522950053E0,3.498000145E0,8.497950554E0
8.832974520E-1,-1.055999994E0,3.412050247E0,8.829000473E0
8.857408360E-1,-7.590000629E-1,3.333000183E0,9.312000275E0
8.881842200E-1,-7.420500517E-1,3.271050215E0,9.604050636E0
8.906276050E-1,-1.314000010E0,3.445050240E0,9.640050888E0
8.930709660E-1,-1.450950027E0,3.498000145E0,9.142050743E0
8.955143510E-1,-1.456050038E0,3.529050112E0,8.287950516E0
8.979577360E-1,-1.444050074E0,3.546000242E0,7.533000469E0
9.004011210E-1,-1.185000062E0,3.370950222E0,7.035000324E0
9.028445060E-1,-9.930000305E-1,3.127050161E0,6.883950233E0
9.052879050E-1,-1.015050054E0,3.001950026E0,7.174050331E0
9.077312890E-1,-1.057950020E0,2.884950161E0,7.404000282E0
9.101746730E-1,-9.769500494E-1,2.659950018E0,7.561950207E0
9.126180570E-1,-1.249950051E0,2.782050133E0,8.282999992E0
9.150614410E-1,-1.582050085E0,2.971050024E0,8.881050110E0
9.175048070E-1,-2.145000219E0,3.357000113E0,9.388950348E0
9.199481920E-1,-2.650050163E0,3.751950264E0,9.724050522E0
9.223915770E-1,-3.009000063E0,4.147050381E0,9.922950745E0
9.248350370E-1,-3.285000086E0,4.474950314E0,1.005000019E1
9.272783470E-1,-3.487950087E0,4.708950043E0,1.013400078E1
9.297218070E-1,-3.579000235E0,4.803000450E0,1.019100094E1
9.321651160E-1,-3.558000088E0,4.800000191E0,1.013400078E1
9.346085760E-1,-3.519000053E0,4.705049992E0,1.004700089E1
9.370518860E-1,-3.469050169E0,4.567950249E0,9.894000053E0
9.394952680E-1,-3.445050240E0,4.425000191E0,9.649950027E0
9.419386340E-1,-3.409050226E0,4.185000420E0,9.336000443E0
9.443820190E-1,-3.273000240E0,3.943050146E0,9.025050163E0
9.468254030E-1,-3.154950142E0,3.742050171E0,8.756999969E0
9.492687880E-1,-3.049950123E0,3.601050138E0,8.500950813E0
9.517121820E-1,-2.971050024E0,3.484050274E0,8.395050049E0
9.541555670E-1,-2.871000051E0,3.445050240E0,8.352000237E0
9.565989520E-1,-2.776950121E0,3.450000048E0,8.290050507E0
9.590423370E-1,-2.638050079E0,3.484050274E0,8.244000435E0
9.614857970E-1,-2.461050034E0,3.487950087E0,8.197050095E0
9.639290970E-1,-2.272050142E0,3.520050049E0,8.083950043E0
9.663725560E-1,-2.146950006E0,3.523950100E0,7.869000435E0
9.688159430E-1,-2.131050110E0,3.583950281E0,7.653000355E0
9.712593270E-1,-2.233950138E0,3.625050068E0,7.416000366E0
9.737027120E-1,-2.404050112E0,3.711000204E0,7.251000404E0
9.761460830E-1,-2.607000113E0,3.828000069E0,7.086000443E0
9.785894670E-1,-2.835000038E0,3.973950148E0,6.985050201E0
9.810328520E-1,-3.064950228E0,4.137000084E0,6.952050209E0
9.834762360E-1,-3.199050188E0,4.285950184E0,7.030950546E0
9.859196200E-1,-3.349050045E0,4.444050312E0,7.165050507E0
9.883630180E-1,-3.403950214E0,4.549050331E0,7.324950218E0
9.908064020E-1,-3.330000162E0,4.614000320E0,7.453950405E0
9.932497870E-1,-3.265950203E0,4.614000320E0,7.596000195E0
9.956931720E-1,-3.129000187E0,4.555950165E0,7.770000458E0
9.981365570E-1,-2.953950167E0,4.456050396E0,7.950000286E0
1.000579938E0,-3.009000063E0,4.360050201E0,8.059950829E0
1.003023323E0,-3.613050222E0,4.144050121E0,8.218050003E0
1.005466708E0,-3.582000256E0,4.117949963E0,8.601000786E0
1.007910093E0,-3.685050249E0,4.111050129E0,8.756999969E0
1.010353477E0,-3.697050095E0,4.165950298E0,8.848050117E0
1.012796856E0,-3.766050100E0,4.125000000E0,8.853000641E0
1.015240240E0,-3.904950142E0,4.029000282E0,8.869050026E0
1.017683624E0,-3.922050238E0,3.955050230E0,8.941050529E0
1.020127009E0,-3.700950146E0,3.883050203E0,8.935950279E0
1.022570394E0,-3.651000261E0,3.814050198E0,8.769000053E0
1.025013764E0,-3.495000124E0,3.747000217E0,8.698950768E0
1.027457149E0,-3.337050200E0,3.754050255E0,8.601000786E0
1.029900534E0,-3.079050064E0,3.795000076E0,8.563050270E0
1.032343919E0,-2.968950033E0,3.783000231E0,8.503050804E0
1.034787303E0,-3.120000124E0,3.634050131E0,8.319000244E0
1.037230682E0,-2.871000051E0,3.613050222E0,8.789999962E0
1.039674296E0,-2.736000061E0,3.627000093E0,8.752050400E0
1.042117452E0,-2.734050035E0,3.655950069E0,9.039000511E0
1.044561066E0,-2.794050217E0,3.673050165E0,9.324000359E0
1.047004452E0,-2.962050200E0,3.735000134E0,9.636000633E0
1.049447818E0,-3.145950079E0,3.888000250E0,9.918000221E0
1.051891203E0,-3.220050097E0,4.087049961E0,9.931950569E0
1.054334587E0,-3.196050167E0,4.276050091E0,9.789000511E0
1.056777972E0,-3.069000244E0,4.437000275E0,9.499050140E0
1.059221356E0,-2.974050045E0,4.579950333E0,8.917050362E0
1.061664727E0,-2.832000017E0,4.705049992E0,8.251950264E0
1.064108112E0,-2.689050198E0,4.777050018E0,7.617000580E0
1.066551496E0,-2.515950203E0,4.812000275E0,7.039950371E0
1.068994880E0,-2.349000216E0,4.815000057E0,6.646950245E0
1.071438278E0,-2.149950027E0,4.800000191E0,6.513000488E0
1.073881662E0,-1.927050114E0,4.894050121E0,7.464000225E0
1.076325047E0,-1.954050064E0,5.080950260E0,7.983000278E0
1.078768432E0,-2.119050026E0,4.888950348E0,6.607050419E0
1.081211817E0,-2.206950188E0,4.633050442E0,5.959950447E0
1.083655197E0,-2.290950060E0,4.432050228E0,5.077050209E0
1.086098582E0,-2.406000137E0,4.245000362E0,4.212000370E0
1.088541967E0,-2.506950140E0,4.153950214E0,3.433950186E0
1.090985352E0,-2.634000063E0,4.132050037E0,2.932050228E0
1.093428736E0,-2.818050146E0,4.197000027E0,2.683050156E0
1.095872101E0,-3.091050148E0,4.377000332E0,2.685000181E0
1.098315485E0,-3.318000078E0,4.693050385E0,3.001050234E0
1.100758869E0,-3.802050114E0,5.149950027E0,3.216000080E0
1.103202254E0,-4.204050064E0,5.602950096E0,3.489000082E0
1.105645639E0,-4.258950233E0,5.959050179E0,3.853050232E0
1.108089034E0,-4.072050095E0,6.073950291E0,4.203000069E0
1.110532419E0,-4.117949963E0,6.577050209E0,4.581000328E0
1.112975804E0,-4.019999981E0,7.384050369E0,4.930950165E0
1.115419189E0,-3.948000193E0,7.884000301E0,4.950000286E0
1.117862648E0,-3.763950109E0,8.217000008E0,4.914000034E0
1.120305978E0,-3.577050209E0,8.389050484E0,4.962000370E0
1.122749438E0,-3.454950094E0,8.381999969E0,5.007000446E0
1.125192747E0,-3.502950191E0,8.196000099E0,4.963950157E0
1.127636207E0,-3.723000288E0,7.899000168E0,4.840050220E0
1.130079593E0,-3.964950085E0,7.531950474E0,4.780050278E0
1.132522978E0,-4.216050148E0,7.099050522E0,4.792050362E0
1.134966363E0,-4.435950279E0,6.673050404E0,4.986000061E0
1.137409747E0,-4.591950417E0,6.181950092E0,5.371050358E0
1.139853132E0,-4.495950222E0,5.617050171E0,6.013050079E0
1.142296516E0,-4.254000187E0,5.140050411E0,6.694950104E0
1.144739885E0,-3.979050159E0,4.768950462E0,7.150050163E0
1.147183269E0,-3.687000275E0,4.651950359E0,7.192950249E0
1.149626653E0,-3.475950241E0,4.771950245E0,6.721950531E0
1.152070038E0,-3.340050220E0,5.200050354E0,5.917050362E0
1.154513423E0,-3.190950155E0,5.704950333E0,4.879950047E0
1.156956808E0,-3.043050051E0,6.115050316E0,3.801000118E0
1.159400193E0,-2.995050192E0,6.390000343E0,2.745000124E0
1.161843578E0,-3.178950071E0,6.567000389E0,1.918950081E0
1.164286963E0,-3.610050201E0,6.807000160E0,1.411050081E0
1.166730348E0,-4.113000393E0,7.089000225E0,1.339050055E0
1.169173727E0,-4.501049995E0,7.386000156E0,1.264950037E0
1.171617111E0,-4.660950184E0,7.707000256E0,1.501950026E0
1.174060495E0,-4.669050217E0,8.049000740E0,2.131950140E0
1.176503879E0,-4.683000088E0,8.454000473E0,2.746950150E0
1.178947264E0,-4.858050346E0,8.892000198E0,2.898000240E0
1.181390635E0,-4.891050339E0,9.283050537E0,2.902950048E0
1.183834020E0,-4.795950413E0,9.675000191E0,2.922000170E0
1.186277405E0,-4.647000313E0,9.963000298E0,2.826000214E0
1.188720790E0,-4.669050217E0,1.018800068E1,2.541000128E0
1.191164175E0,-4.750050068E0,1.021905041E1,2.115000010E0
1.193607550E0,-4.942050457E0,1.010895061E1,1.497000098E0
1.196051163E0,-5.167050362E0,9.795000076E0,9.180000424E-1
1.198494319E0,-5.380050182E0,9.414000511E0,3.979500234E-1
1.200937932E0,-5.622000217E0,9.079050064E0,-1.969500035E-1
1.203381088E0,-5.820000172E0,8.818050385E0,-7.759500146E-1
1.205824701E0,-5.977950096E0,8.647950172E0,-1.159050107E0
1.208267857E0,-6.097950459E0,8.548050880E0,-1.332000017E0
1.210711471E0,-6.189000130E0,8.542950630E0,-1.525950074E0
1.213154857E0,-6.226950169E0,8.614950180E0,-1.786950111E0
1.215598242E0,-6.225000381E0,8.694000244E0,-2.191050053E0
1.218041627E0,-6.298950195E0,8.731950760E0,-2.728050232E0
1.220485011E0,-6.448050499E0,8.782050133E0,-3.417000055E0
1.222928396E0,-6.610050201E0,8.808000565E0,-4.176000118E0
1.225371780E0,-6.780000210E0,8.788949966E0,-4.882050037E0
1.227815165E0,-6.982050419E0,8.794050217E0,-5.340000153E0
1.230258536E0,-7.228050232E0,8.848950386E0,-5.488050461E0
1.232701920E0,-7.654050350E0,9.079050064E0,-4.854000092E0
1.235145304E0,-8.071050644E0,9.409049988E0,-3.361950159E0
1.237588688E0,-7.827000141E0,9.466950417E0,-2.371050119E0
1.240032072E0,-7.293000221E0,9.544050217E0,-2.365950108E0
1.242475457E0,-6.606000423E0,9.607950211E0,-2.649000168E0
1.244918842E0,-6.016950130E0,9.736950874E0,-2.653050184E0
1.247362227E0,-5.811000347E0,9.934050560E0,-2.512050152E0
1.249805612E0,-6.238950253E0,1.025700092E1,-2.308950186E0
1.252249067E0,-6.778050423E0,1.044900036E1,-2.203050137E0
1.254692377E0,-7.051050186E0,1.029300022E1,-2.209950209E0
1.257135836E0,-6.997950554E0,9.904950142E0,-2.325000048E0
1.259579223E0,-6.903000355E0,9.418950081E0,-2.542950153E0
1.262022608E0,-7.005000114E0,9.036000252E0,-2.835000038E0
1.264465992E0,-7.377000332E0,8.728950500E0,-3.120000124E0
1.266909377E0,-7.762050152E0,8.641050339E0,-3.409950256E0
1.269352761E0,-8.152050018E0,8.607000351E0,-3.637050152E0
1.271796145E0,-8.545050621E0,8.737050056E0,-3.738000154E0
1.274239529E0,-8.953950882E0,8.848950386E0,-3.831000090E0
1.276682913E0,-9.286950111E0,9.013950348E0,-4.051949978E0
1.279126298E0,-9.463950157E0,9.091050148E0,-4.510950089E0
1.281569683E0,-9.543000221E0,9.112950325E0,-5.200950146E0
1.284013068E0,-9.436050415E0,9.072000504E0,-5.935950279E0
1.286456453E0,-9.237000465E0,9.057000160E0,-6.562950134E0
1.288899852E0,-9.000000000E0,9.013950348E0,-6.886050224E0
1.291343237E0,-8.820000648E0,9.057000160E0,-6.714000225E0
1.293786622E0,-8.808000565E0,9.139050484E0,-6.151050091E0
1.296230006E0,-8.827950478E0,9.256050110E0,-5.356050491E0
1.298673390E0,-8.835000038E0,9.412050247E0,-4.471050262E0
1.301116760E0,-8.794050217E0,9.582000732E0,-3.532050133E0
1.303560144E0,-8.677050591E0,9.771000862E0,-2.737050056E0
1.306003529E0,-8.478000641E0,9.871950150E0,-2.163000107E0
1.308446914E0,-8.344050407E0,9.888000488E0,-2.056950092E0
1.310890299E0,-8.272050858E0,9.751950264E0,-2.344050169E0
1.313333679E0,-8.109000206E0,9.453000069E0,-2.851950169E0
1.315777064E0,-7.860000610E0,9.012000084E0,-3.403050184E0
1.318220449E0,-7.659000397E0,8.619000435E0,-3.823950291E0
1.320663834E0,-7.567950249E0,8.215050697E0,-4.090050220E0
1.323107447E0,-7.506000519E0,7.924950600E0,-4.140000343E0
1.325550589E0,-7.567950249E0,7.786050320E0,-3.939000130E0
1.327994202E0,-7.663950443E0,7.651950359E0,-3.481950283E0
1.330437589E0,-7.575000286E0,7.449000359E0,-3.060000181E0
1.332880973E0,-7.408050537E0,7.270950317E0,-2.938050032E0
1.335324358E0,-7.209000111E0,7.117950439E0,-3.028950214E0
1.337767757E0,-6.972000122E0,6.970050335E0,-3.285000086E0
1.340211141E0,-6.627000332E0,6.838050365E0,-3.574950218E0
1.342654526E0,-6.213000298E0,6.706050396E0,-3.817050219E0
1.345097911E0,-5.770050049E0,6.558000088E0,-3.847950220E0
1.347541295E0,-5.382000446E0,6.406950474E0,-3.795000076E0
1.349984674E0,-5.119050026E0,6.217950344E0,-3.654000282E0
1.352428134E0,-4.876950264E0,6.019050121E0,-3.522000074E0
1.354871444E0,-4.720950127E0,5.779950142E0,-3.343050241E0
1.357314904E0,-4.597050190E0,5.602950096E0,-2.965050220E0
1.359758213E0,-4.543950081E0,5.404050350E0,-2.409000158E0
1.362201596E0,-4.501049995E0,5.233950138E0,-1.747950077E0
1.364644980E0,-4.405050278E0,5.047050476E0,-1.099050045E0
1.367088365E0,-4.309950352E0,4.879050255E0,-5.659500360E-1
1.369531750E0,-4.081950188E0,4.777050018E0,-1.249500066E-1
1.371975206E0,-3.903000116E0,4.731000423E0,2.599500120E-1
1.374418516E0,-3.724950075E0,4.696950436E0,6.330000162E-1
1.376861975E0,-3.598050117E0,4.693050385E0,9.660000205E-1
1.379305362E0,-3.577050209E0,4.765050411E0,1.174050093E0
1.381748747E0,-3.697050095E0,4.828950405E0,1.111950040E0
1.384192131E0,-3.895050287E0,4.888950348E0,7.740000486E-1
1.386635516E0,-4.219050407E0,4.969950199E0,2.620500028E-1
1.389078901E0,-4.546950340E0,5.065950394E0,-3.619500101E-1
1.391522285E0,-4.731000423E0,5.193000317E0,-8.959500194E-1
1.393965669E0,-4.774050236E0,5.317950249E0,-1.240950108E0
1.396409053E0,-4.729050159E0,5.557050228E0,-1.375050068E0
1.398852437E0,-4.732950211E0,5.787000179E0,-1.429950118E0
1.401295822E0,-4.918050289E0,5.988000393E0,-1.534950018E0
1.403739207E0,-5.217000484E0,6.093000412E0,-1.714950085E0
1.406182592E0,-5.703000069E0,6.112950325E0,-1.978050113E0
1.408625977E0,-6.091050148E0,6.117000103E0,-2.416050196E0
1.411069362E0,-6.318000317E0,6.060000420E0,-3.067950249E0
1.413512747E0,-6.412050247E0,6.045000076E0,-3.901050091E0
1.415956131E0,-6.462000370E0,6.036000252E0,-4.678950310E0
1.418399515E0,-6.496050358E0,6.037950516E0,-5.260950089E0
1.420843139E0,-6.559950352E0,6.091050148E0,-5.625000477E0
1.423286526E0,-6.538950443E0,6.133950233E0,-5.878050327E0
1.425729911E0,-6.400050163E0,6.153000355E0,-5.995950222E0
1.428173295E0,-6.304050446E0,6.103050232E0,-5.923950195E0
1.430616680E0,-6.340050220E0,6.109950066E0,-5.730000496E0
1.433060070E0,-6.418950081E0,6.136050224E0,-5.470950127E0
1.435503454E0,-6.448050499E0,6.189000130E0,-5.206050396E0
1.437946839E0,-6.400050163E0,6.286950111E0,-5.107050419E0
1.440390223E0,-6.273000240E0,6.393000126E0,-5.320950031E0
1.442833607E0,-6.136050224E0,6.472050190E0,-5.764050484E0
1.445277005E0,-6.013950348E0,6.541050434E0,-6.196950436E0
1.447720389E0,-5.962050438E0,6.586950302E0,-6.445950508E0
1.450163774E0,-5.847000122E0,6.571950436E0,-6.496050358E0
1.452607159E0,-5.689050198E0,6.520050526E0,-6.336000443E0
1.455050544E0,-5.464050293E0,6.433050156E0,-6.003000259E0
1.457493915E0,-5.230950356E0,6.429000378E0,-5.590950489E0
1.459937300E0,-4.899000168E0,6.333000183E0,-5.068950176E0
1.462380685E0,-4.531949997E0,6.289950371E0,-4.429950237E0
1.464824070E0,-4.111050129E0,6.229950428E0,-3.570000172E0
1.467267454E0,-3.804000139E0,6.229950428E0,-3.082050085E0
1.469710838E0,-3.649050236E0,6.280050278E0,-3.199050188E0
1.472154222E0,-3.558000088E0,6.358950138E0,-3.682950258E0
1.474597683E0,-3.547950268E0,6.583950520E0,-4.099050045E0
1.477041070E0,-3.574050188E0,6.867000103E0,-4.132950306E0
1.479484454E0,-3.579000235E0,7.173000336E0,-3.799950123E0
1.481927829E0,-3.522000074E0,7.458000183E0,-3.333000183E0
1.484371214E0,-3.475950241E0,7.602000237E0,-2.910000086E0
1.486814598E0,-3.475950241E0,7.567950249E0,-2.574000120E0
1.489257983E0,-3.567000151E0,7.482000351E0,-2.347050190E0
1.491701381E0,-3.625050068E0,7.341000557E0,-2.332950115E0
1.494144765E0,-3.675000191E0,7.321950436E0,-2.593050241E0
1.496588149E0,-3.709050179E0,7.413000584E0,-3.166050196E0
1.499031533E0,-3.675000191E0,7.638000488E0,-4.009050369E0
1.501474918E0,-3.577050209E0,7.912950516E0,-4.899000168E0
1.503918288E0,-3.490950108E0,8.260050774E0,-5.701050282E0
1.506361673E0,-3.430950165E0,8.626950264E0,-6.229950428E0
1.508805058E0,-3.531000137E0,8.971050262E0,-6.489000320E0
1.511248443E0,-3.820950270E0,9.309000015E0,-6.532050133E0
1.513691828E0,-4.198950291E0,9.505050659E0,-6.466950417E0
1.516135227E0,-4.498950005E0,9.544050217E0,-6.349950314E0
1.518578840E0,-4.615950108E0,9.430950165E0,-6.139050484E0
1.521022227E0,-4.669050217E0,9.280050278E0,-5.809050083E0
1.523465611E0,-4.723950386E0,9.088950157E0,-5.383050442E0
1.525908996E0,-4.719000340E0,8.955000877E0,-5.035950184E0
1.528352366E0,-4.563000202E0,8.800950050E0,-4.890000343E0
1.530795751E0,-4.252050400E0,8.563950539E0,-4.966050148E0
1.533239136E0,-3.958050251E0,8.314949989E0,-5.103000164E0
1.535682520E0,-3.691950083E0,8.064000130E0,-5.110050201E0
1.538125904E0,-3.475950241E0,7.815000534E0,-4.923000336E0
1.540569302E0,-3.187050104E0,7.498950481E0,-4.636050224E0
1.543012686E0,-2.971050024E0,7.225950241E0,-4.339050293E0
1.545456071E0,-2.820000172E0,6.985950470E0,-4.132950306E0
1.547899456E0,-2.716950178E0,6.844950199E0,-4.047000408E0
1.550342841E0,-2.677050114E0,6.760950089E0,-3.976950169E0
1.552786226E0,-2.614050150E0,6.763950348E0,-3.810000181E0
1.555229611E0,-2.511000156E0,6.816000462E0,-3.481950283E0
1.557672996E0,-2.502000093E0,6.961950302E0,-2.992950201E0
1.560116381E0,-2.551950216E0,7.197000504E0,-2.476050138E0
1.562559840E0,-2.722050190E0,7.365000248E0,-2.218050003E0
1.565003227E0,-2.763000250E0,7.498950481E0,-2.425950050E0
1.567446611E0,-2.727000237E0,7.549050331E0,-3.154050112E0
1.569889996E0,-2.727000237E0,7.377000332E0,-4.174050331E0
1.572333381E0,-2.848950148E0,7.201950550E0,-5.122050285E0
1.574776765E0,-2.751000166E0,7.264050484E0,-5.641050339E0
1.577220145E0,-2.593050241E0,7.276050568E0,-5.578950405E0
1.579663529E0,-2.707950115E0,7.237950325E0,-5.416050434E0
1.582106913E0,-3.009000063E0,7.249950409E0,-5.275050163E0
1.584550297E0,-3.201000214E0,7.345950127E0,-4.882050037E0
1.586993681E0,-3.097950220E0,7.429050446E0,-4.408050060E0
1.589437066E0,-2.806050062E0,7.489050388E0,-3.958050251E0
1.591880451E0,-2.473050117E0,7.441050529E0,-3.778950214E0
1.594323836E0,-2.143050194E0,7.354950428E0,-3.730950117E0
1.596767221E0,-1.887000084E0,7.314000130E0,-3.610950232E0
1.599210835E0,-1.756950140E0,7.341000557E0,-3.393000126E0
1.601654217E0,-1.683000088E0,7.354950428E0,-3.099000216E0
1.604097601E0,-1.579950094E0,7.369950294E0,-2.775000095E0
1.606540986E0,-1.420050025E0,7.366950512E0,-2.482950211E0
1.608984371E0,-1.278000116E0,7.378950119E0,-2.574000120E0
1.611427741E0,-1.080000043E0,7.405050278E0,-2.983950138E0
1.613871126E0,-9.049500227E-1,7.513050556E0,-3.634950161E0
1.616314511E0,-7.110000253E-1,7.645050526E0,-4.186050415E0
1.618757895E0,-6.060000062E-1,7.840950489E0,-4.449000359E0
1.621201279E0,-6.079500318E-1,8.092950821E0,-4.427999973E0
1.623644658E0,-6.150000095E-1,8.326950073E0,-4.252950191E0
1.626088042E0,-6.060000062E-1,8.421000481E0,-4.080000401E0
1.628531427E0,-8.020500541E-1,8.473050117E0,-3.976950169E0
1.630974812E0,-1.128000021E0,8.488050461E0,-3.988950253E0
1.633418197E0,-1.423950076E0,8.494950294E0,-4.140000343E0
1.635861587E0,-1.626000047E0,8.524050713E0,-4.609050274E0
1.638304972E0,-1.681050062E0,8.623950005E0,-5.481000423E0
1.640748432E0,-1.558050036E0,8.683950424E0,-6.541950226E0
1.643191818E0,-1.399950027E0,8.703000069E0,-7.312950134E0
1.645635203E0,-1.219050050E0,8.682000160E0,-7.708050251E0
1.648078593E0,-1.138950109E0,8.562000275E0,-7.780050278E0
1.650521977E0,-1.101000071E0,8.482950211E0,-7.885050297E0
1.652965362E0,-1.159050107E0,8.416049957E0,-8.098050117E0
1.655408746E0,-1.402950048E0,8.348999977E0,-8.340000153E0
1.657852130E0,-1.638000131E0,8.320050240E0,-8.412000656E0
1.660295519E0,-1.810050130E0,8.314949989E0,-8.224950790E0
1.662738903E0,-1.788000107E0,8.332050323E0,-7.798950195E0
1.665182288E0,-1.626000047E0,8.301000595E0,-7.305000305E0
1.667625673E0,-1.354950070E0,8.287050247E0,-6.949050426E0
1.670069058E0,-1.065000057E0,8.248050690E0,-6.757050514E0
1.672512452E0,-7.969500422E-1,8.217000008E0,-6.676050186E0
1.674955837E0,-4.980000257E-1,8.197950363E0,-6.645000458E0
1.677399222E0,-1.720500141E-1,8.236050606E0,-6.550950527E0
1.679842835E0,7.605000585E-2,8.290950775E0,-6.393000126E0
1.682286222E0,2.719500065E-1,8.325000763E0,-6.130050182E0
1.684729612E0,3.799500167E-1,8.302950859E0,-5.761050224E0
1.687172996E0,5.470499992E-1,8.131050110E0,-5.421000481E0
1.689616381E0,7.819500566E-1,7.923000336E0,-5.064000130E0
1.692059765E0,1.014000058E0,7.707000256E0,-4.717050076E0
1.694503150E0,1.158000112E0,7.627950191E0,-4.234050274E0
1.696946555E0,1.342050076E0,7.714050293E0,-3.706950188E0
1.699389939E0,1.704000115E0,7.860000610E0,-3.364050150E0
1.701833323E0,2.080049992E0,8.049000740E0,-3.352050066E0
1.704276707E0,2.353049994E0,8.266950607E0,-3.396000147E0
1.706720091E0,2.440950155E0,8.430000305E0,-3.439050198E0
1.709163495E0,2.535000086E0,8.518950462E0,-3.532050133E0
1.711606880E0,2.563050032E0,8.479949951E0,-3.597000122E0
1.714050341E0,2.476950169E0,8.362950325E0,-3.657000065E0
1.716493728E0,2.355000019E0,8.212050438E0,-3.891000271E0
1.718937112E0,2.302050114E0,7.975050449E0,-4.444050312E0
1.721380512E0,2.355000019E0,7.786050320E0,-5.152950287E0
1.723823896E0,2.404950142E0,7.731000423E0,-5.839950085E0
1.726267281E0,2.431950092E0,7.753050327E0,-6.345000267E0
1.728710666E0,2.404950142E0,7.840950489E0,-6.628050327E0
1.731154050E0,2.358000040E0,7.935000420E0,-6.762000084E0
1.733597434E0,2.274000168E0,8.041950226E0,-6.841050148E0
1.736040818E0,2.213999987E0,8.157000542E0,-6.931950092E0
1.738484202E0,2.209050179E0,8.197950363E0,-6.949050426E0
1.740927587E0,2.281050205E0,8.227050781E0,-6.997050285E0
1.743370977E0,2.287950039E0,8.263050079E0,-7.267050266E0
1.745814592E0,2.350050211E0,8.269950867E0,-7.837050438E0
1.748257978E0,2.401050091E0,8.278950691E0,-8.589000702E0
1.750701363E0,2.472000122E0,8.245950699E0,-9.240000725E0
1.753144748E0,2.515950203E0,8.197950363E0,-9.561000824E0
1.755588136E0,2.584950209E0,8.221950531E0,-9.337950706E0
1.758031521E0,4.218000412E0,7.611000538E0,-1.806300163E1
1.760474906E0,2.755050182E0,6.457050323E0,-1.399995041E1
1.762918290E0,-5.509500504E-1,5.931000233E0,-6.108000278E0
1.765361674E0,-4.309500158E-1,6.642000198E0,-3.549000263E0
1.767805058E0,6.310500503E-1,8.004000664E0,-3.441000223E0
1.770248442E0,1.921950102E0,8.944950104E0,-4.223999977E0
1.772691827E0,3.375000238E0,8.842050552E0,-4.801050186E0
1.775135212E0,4.189050198E0,8.221950531E0,-4.866000175E0
1.777578673E0,4.429050446E0,7.681050301E0,-4.510950089E0
1.780022064E0,4.756950378E0,7.144050121E0,-3.726000071E0
1.782465449E0,4.693950176E0,6.864000320E0,-2.955000162E0
1.784908834E0,4.420950413E0,6.442950249E0,-2.578950167E0
1.787352218E0,3.892050266E0,6.201000214E0,-2.677050114E0
1.789795603E0,3.457050085E0,5.872950077E0,-2.974050045E0
1.792239003E0,3.318000078E0,5.631000042E0,-3.144000053E0
1.794682387E0,3.600000143E0,5.506950378E0,-3.184950113E0
1.797125771E0,4.038000107E0,5.476050377E0,-3.163050175E0
1.799569155E0,4.339950085E0,5.746050358E0,-3.292950153E0
1.802012539E0,5.202000141E0,5.764950275E0,-1.023600006E1
1.804455928E0,5.652000427E0,5.203050137E0,-8.031000137E0
1.806899543E0,3.871050119E0,5.362950325E0,-4.272000313E0
1.809342930E0,2.839050055E0,6.172050476E0,-5.323050022E0
1.811786314E0,2.884050131E0,6.718050480E0,-5.971950054E0
1.814229468E0,2.970000029E0,7.342950344E0,-6.001050472E0
1.816673082E0,3.093000174E0,7.996950150E0,-5.833050251E0
1.819116468E0,3.094950199E0,8.464050293E0,-6.727950096E0
1.821559853E0,3.078000069E0,8.740950584E0,-7.291050434E0
1.824003237E0,3.217050076E0,8.607000351E0,-8.138999939E0
1.826446622E0,3.454050064E0,8.586000443E0,-8.533950806E0
1.828889993E0,3.562050104E0,8.434950829E0,-8.550000191E0
1.831333377E0,3.310050249E0,8.308050156E0,-8.404050827E0
1.833776761E0,2.935050249E0,8.121000290E0,-8.067000389E0
1.836220145E0,2.583000183E0,7.755000591E0,-7.708050251E0
1.838663529E0,2.410050154E0,7.350000381E0,-7.411050320E0
1.841106914E0,2.520000219E0,6.819000244E0,-7.204950333E0
1.843550299E0,2.656950235E0,6.333000183E0,-6.975000381E0
1.845993760E0,2.821950197E0,6.177000523E0,-7.152000427E0
1.848437147E0,3.121050119E0,6.043050289E0,-7.657050133E0
1.850880531E0,3.313050270E0,5.878050327E0,-6.670950413E0
1.853323911E0,3.078000069E0,5.965950489E0,-6.901050091E0
1.855767295E0,2.868000031E0,6.097950459E0,-6.601950169E0
1.858210680E0,2.808000088E0,6.043050289E0,-6.312000275E0
1.860654065E0,2.689950228E0,6.022050381E0,-6.040950298E0
1.863097449E0,2.773950100E0,5.848950386E0,-5.941050053E0
1.865540828E0,2.937000036E0,5.653050423E0,-5.704050064E0
1.867984212E0,3.174000263E0,5.539950371E0,-5.220000267E0
1.870427596E0,3.555000067E0,5.452050209E0,-5.062050343E0
1.872870981E0,3.952050209E0,5.290950298E0,-4.789050102E0
1.875314366E0,4.204050064E0,5.338950157E0,-4.471050262E0
1.877757962E0,5.032050133E0,6.718050480E0,5.248950481E0
1.880201118E0,2.034000158E0,1.079295063E1,7.540950298E0
1.882644731E0,4.108050346E0,1.032405090E1,-5.341950417E0
1.885088118E0,5.383950233E0,1.182105064E1,-9.087000847E0
1.887531271E0,5.068050385E0,1.275195026E1,-1.515405083E1
1.889974865E0,3.442050219E0,1.318800068E1,-1.401900101E1
1.892418021E0,1.716000080E0,1.318500042E1,-1.224000072E1
1.894861634E0,6.460500360E-1,1.282800102E1,-1.075605011E1
1.897305021E0,2.449050188E0,1.119600010E1,-9.525000572E0
1.899748405E0,2.359500080E-1,1.003200054E1,-4.626000404E0
1.902191794E0,-1.329000115E0,9.153000832E0,-5.083950043E0
1.904635179E0,-1.264050007E0,7.942050457E0,-5.191050053E0
1.907078563E0,-6.799500585E-1,7.033950329E0,-4.738950253E0
1.909521948E0,-1.890000105E-1,9.448050499E0,-8.629050255E0
1.911965318E0,1.504950047E0,1.381995106E1,-1.685400009E1
1.914408702E0,3.588000059E0,1.165800095E1,-1.010400009E1
1.916852086E0,4.728000164E0,9.876000404E0,4.099950314E0
1.919295547E0,2.731050014E0,1.256805038E1,-6.961050510E0
1.921738934E0,4.543950081E0,1.072200012E1,-6.369000435E0
1.924182308E0,3.265050173E0,9.718050003E0,-6.654000282E0
1.926625693E0,2.829000235E0,8.077950478E0,-5.911950111E0
1.929069078E0,2.769000053E0,6.595950127E0,-8.236949921E0
1.931512462E0,3.466050148E0,6.466950417E0,-7.224000454E0
1.933955847E0,3.937950134E0,6.121950150E0,-7.399050236E0
1.936399242E0,4.279950142E0,6.538950443E0,-6.834000111E0
1.938842626E0,4.753950119E0,6.694050312E0,-6.793050289E0
1.941286010E0,4.726050377E0,6.594000340E0,-6.550950527E0
1.943729394E0,4.965000153E0,6.663000107E0,-6.496050358E0
1.946173009E0,5.520000458E0,6.184050083E0,-7.132950306E0
1.948616390E0,4.825950146E0,5.995050430E0,-7.626000404E0
1.951059775E0,3.816000223E0,5.761050224E0,-8.287050247E0
1.953503160E0,3.064050198E0,5.218950272E0,-8.629050255E0
1.955946544E0,3.366000175E0,6.211050510E0,-7.756050587E0
1.958389929E0,8.623050690E0,6.229950428E0,-6.814950466E0
1.960833328E0,8.913000107E0,5.896950245E0,-6.226050377E0
1.963276712E0,7.407000542E0,5.157000065E0,-5.626950264E0
1.965720096E0,5.704950333E0,4.060950279E0,-6.487050533E0
1.968163480E0,4.096050262E0,3.333000183E0,-6.580050468E0
1.970606864E0,3.066000223E0,2.370000124E0,-7.285950184E0
1.973050321E0,2.343000174E0,2.239050150E0,-7.417950153E0
1.975493707E0,2.299950123E0,3.244050264E0,-6.906000137E0
1.977937092E0,2.323950052E0,3.136050224E0,-6.949050426E0
1.980380476E0,2.700000048E0,1.261950016E0,-7.510950565E0
1.982823861E0,2.494050026E0,-4.399500191E-1,-7.780050278E0
1.985267237E0,3.373050213E0,-9.450000525E-1,-6.841050148E0
1.987710621E0,3.283950090E0,-3.559500277E-1,-5.770950317E0
1.990154005E0,4.572000027E0,-2.119500041E-1,-4.420050144E0
1.992597389E0,3.909000158E0,1.318950057E0,-5.574000359E0
1.995040773E0,4.371000290E0,2.421000004E0,-2.668050051E0
1.997484182E0,4.656000137E0,3.330000162E0,-3.798000097E0
1.999927797E0,5.620950222E0,2.887050152E0,-1.858050108E0
2.002370953E0,6.370050430E0,2.772000074E0,-2.433000088E0
2.004814566E0,6.967050552E0,4.137000084E0,-2.646000147E0
2.007257722E0,7.498050213E0,5.433000088E0,-2.839950085E0
2.009701336E0,8.503950119E0,5.698050499E0,-3.991950274E0
2.012144722E0,9.631050110E0,6.297000408E0,-5.218050480E0
2.014588107E0,9.538050652E0,7.711950302E0,-6.724050522E0
2.017031492E0,1.111095047E1,7.519950390E0,-6.364050388E0
2.019474876E0,1.082100010E1,7.900950432E0,-7.842000484E0
2.021918275E0,1.199895096E1,6.301950455E0,-5.371050358E0
2.024361659E0,1.074495029E1,7.117950439E0,-7.558950424E0
2.026805044E0,1.092900085E1,6.874050140E0,-4.660050392E0
2.029248429E0,9.490050316E0,6.820950508E0,-5.754000187E0
2.031691809E0,9.241050720E0,5.641050339E0,-3.280950069E0
2.034135269E0,7.431000233E0,6.690000534E0,-3.994050264E0
2.036578579E0,6.514050484E0,7.960950375E0,-3.513000250E0
2.039021961E0,5.980050087E0,8.334000587E0,-3.685050249E0
2.041465346E0,5.677950382E0,8.854050636E0,-3.094050169E0
2.043908807E0,5.812950134E0,8.542950630E0,-3.336000204E0
2.046352194E0,5.776950359E0,7.908000469E0,-2.197950125E0
2.048795579E0,5.623050213E0,7.858050346E0,-4.071000099E0
2.051238963E0,5.833950043E0,7.458000183E0,-3.999000072E0
2.053682348E0,5.851050377E0,6.855000496E0,-4.633050442E0
2.056125722E0,5.614050388E0,7.105950356E0,-4.747950077E0
2.058569107E0,5.647050381E0,6.406950474E0,-3.666000128E0
2.061012492E0,5.520000458E0,5.956950188E0,-2.710950136E0
2.063455876E0,4.645950317E0,6.742050171E0,-3.027000189E0
2.065899490E0,4.941000462E0,5.890050411E0,-1.699950099E0
2.068342881E0,4.414050102E0,5.856000423E0,-1.252950072E0
2.070786266E0,3.124050140E0,6.024000168E0,-1.030500084E-1
2.073229651E0,9.190500379E-1,5.317950249E0,3.528000116E0
2.075673035E0,8.370000124E-1,5.377050400E0,5.572050095E0
2.078116420E0,4.237050056E0,3.700950146E0,6.499050140E0
2.080559804E0,6.709950447E0,2.650050163E0,2.680050135E0
2.083003189E0,8.667000771E0,1.741050124E0,1.564050078E0
2.085446574E0,7.600950241E0,2.643000126E0,-1.035000086E0
2.087890033E0,6.085050106E0,3.828000069E0,-7.549500465E-1
2.090333343E0,3.576000214E0,5.758050442E0,-1.222050071E0
2.092776778E0,3.970500231E-1,6.736950397E0,-1.753050089E0
2.095220165E0,-5.910000205E-1,6.274950504E0,1.959000111E0
2.097663550E0,-1.815000057E0,6.691950321E0,-7.309500575E-1
2.100106934E0,-5.119500160E-1,7.111050129E0,1.660050035E0
2.102550319E0,-5.220000148E-1,8.457000732E0,-2.728050232E0
2.104993718E0,9.550500512E-1,8.272050858E0,-1.042050004E0
2.107437102E0,1.869000077E0,6.988950253E0,-1.368000031E0
2.109880486E0,2.977950096E0,5.815950394E0,-9.439500570E-1
2.112323870E0,3.982950211E0,6.105000496E0,-2.469000101E0
2.114767254E0,5.029950142E0,7.018050194E0,-3.373950243E0
2.117210634E0,5.853000164E0,1.165800095E1,-3.774000168E0
2.119654019E0,4.771050453E0,2.575800133E1,-8.601000786E0
2.122097404E0,1.020105076E1,1.067595005E1,-6.681000233E0
2.124540789E0,3.744000196E0,3.075000191E1,-1.665000153E1
2.126984174E0,7.450050354E0,2.565495110E1,-2.306700134E1
2.129427530E0,8.310000420E0,1.575705051E1,-1.546305084E1
2.131871143E0,8.929950714E0,8.928000450E0,-9.391050339E0
2.134314530E0,6.351000309E0,4.270950317E0,-4.328999996E0
2.136757914E0,3.169050217E0,4.519500136E-1,-2.610000134E0
2.139201299E0,1.318050027E0,8.595000207E-2,-1.392000079E0
2.141644699E0,2.550000250E-1,-5.470499992E-1,-7.905000448E-2
2.144088083E0,1.036050081E0,-1.072050095E0,1.524000049E0
2.146531468E0,-1.950000064E-3,1.776000142E0,1.717950106E0
2.148974852E0,1.020000055E-1,2.554950237E0,-1.198050022E0
2.151418221E0,-4.000500143E-1,6.754050255E0,-1.276950002E0
2.153861605E0,1.605000161E-2,5.647950172E0,-4.909050465E0
2.156305066E0,2.446050167E0,4.935000420E0,-4.168950081E0
2.158748453E0,4.491000175E0,2.322000027E0,-2.550000191E0
2.161191838E0,5.286000252E0,2.887050152E0,-1.111050010E0
2.163635237E0,4.816050053E0,3.879000187E0,-3.900000080E-2
2.166078622E0,6.327000141E0,2.977950096E0,2.067000151E0
2.168522006E0,4.896000385E0,4.425000191E0,2.040000111E-1
2.170965391E0,4.065000057E0,4.065000057E0,-2.601000071E0
2.173408776E0,6.109050274E0,2.965950251E0,-7.399500608E-1
2.175852155E0,5.062950134E0,3.859050274E0,2.910000086E-1
2.178295769E0,5.014950275E0,4.410000324E0,6.690000296E-1
2.180739155E0,4.744950294E0,5.239050388E0,1.270050049E0
2.183182540E0,5.094000340E0,5.974050522E0,2.344950199E0
2.185625925E0,4.512000084E0,6.139050484E0,2.521950006E0
2.188069285E0,4.855050087E0,5.515950203E0,3.880050182E0
2.190512670E0,5.286000252E0,6.702000141E0,1.663050056E0
2.192956054E0,5.086950302E0,6.972000122E0,1.303050041E0
2.195399439E0,5.401050091E0,5.847000122E0,2.472000122E0
2.197842824E0,7.029000282E0,5.155050278E0,1.627050042E0
2.200286222E0,8.359950066E0,4.732950211E0,-9.529500604E-1
2.202729606E0,8.271000862E0,4.912950039E0,-1.789050102E0
2.205172990E0,8.056050301E0,4.177950382E0,-1.522950053E0
2.207616374E0,6.196050167E0,3.510000229E0,-7.156950474E0
2.210059836E0,7.062000275E0,7.959000587E0,-1.461795044E1
2.212503222E0,4.861950397E0,8.275050163E0,-1.669605064E1
2.214946607E0,1.092000008E1,1.565595055E1,-1.056600094E1
2.217389992E0,1.342905045E1,2.408895111E1,-3.182805061E1
2.219833376E0,1.203300095E1,1.734195137E1,-2.311995125E1
2.222276761E0,1.095105076E1,6.061950207E0,-1.846050143E0
2.224720145E0,7.933950424E0,-9.619500637E-1,7.870950222E0
2.227163529E0,5.986950397E0,-9.859500527E-1,5.476950169E0
2.229606913E0,7.836000443E0,5.479500294E-1,3.868050098E0
2.232050297E0,4.371000290E0,4.623000145E0,-6.573000431E0
2.234493913E0,4.394999981E0,3.001950026E0,1.729950070E0
2.236937068E0,1.366050124E0,2.109000206E0,6.640050411E0
2.239380682E0,1.447950125E0,2.518950224E0,6.777000427E0
2.241824068E0,1.843500137E1,2.649705124E1,3.894000292E0
2.244267453E0,5.871000290E1,7.477799988E1,2.257695198E1
2.246710838E0,2.062950134E0,8.203050613E0,7.894950390E0
2.249154231E0,-3.634050131E0,-6.580950260E0,9.043950081E0
2.251597616E0,-2.989950180E0,-6.696000099E0,5.101050377E0
2.254041001E0,-2.641050100E0,-7.278000355E0,3.480000257E0
2.256484385E0,-2.250000000E0,-8.176050186E0,2.481000185E0
2.258927769E0,-3.736950159E0,-7.225050449E0,1.786950111E0
2.261371225E0,-4.080000401E0,-7.515000343E0,7.363050461E0
2.263814612E0,-1.113105011E1,-6.445050240E0,-1.413405037E1
2.266257997E0,-1.090305042E1,-3.705000162E0,-4.663395309E1
2.268701381E0,-2.779500198E1,5.343795395E1,-2.105805016E1
2.271144771E0,7.936050415E0,1.888950109E0,1.051200008E1
2.273588155E0,2.130105019E1,4.911000252E0,-3.099000216E0
2.276031540E0,2.256300163E1,9.205950737E0,-2.451105118E1
2.278474925E0,1.103700066E1,2.052000046E0,-4.939950466E0
2.280918309E0,2.880000114E0,7.947000504E0,4.210050106E0
2.283361707E0,4.603050232E0,6.280050278E0,4.809000015E0
2.285805091E0,5.434050083E0,8.002050400E0,4.714950085E0
2.288248706E0,4.567049980E0,6.547950268E0,-3.211050034E0
2.290691862E0,1.917000055E0,8.722050667E0,-7.291050434E0
2.293135475E0,1.126950026E0,9.840000153E0,-8.344950676E0
2.295578848E0,8.610000610E-1,8.373000145E0,-5.280000210E0
2.298022232E0,3.291000128E0,8.526000023E0,-5.062050343E0
2.300465617E0,5.488950253E0,8.725049973E0,-6.520050526E0
2.302909002E0,7.084050179E0,4.603950024E0,-6.817050457E0
2.305352386E0,7.381050587E0,8.016000748E0,-4.614000320E0
2.307795771E0,5.860050201E0,8.518950462E0,-5.088000298E0
2.310239156E0,4.819050312E0,8.539950371E0,-4.389000416E0
2.312682540E0,3.262950182E0,9.544050217E0,-3.285000086E0
2.315125924E0,2.499000072E0,9.199050903E0,-4.744050026E0
2.317569384E0,2.038950205E0,9.181950569E0,-2.071950197E0
2.320012708E0,2.104050159E0,7.960950375E0,-3.819000244E0
2.322456168E0,3.001950026E0,8.089950562E0,-2.562000036E0
2.324899554E0,3.648000240E0,8.181000710E0,-2.139000177E0
2.327342939E0,4.134000301E0,7.243050575E0,-2.140950203E0
2.329786323E0,4.266000271E0,7.666050434E0,-9.490500689E-1
2.332229694E0,4.227000237E0,8.563950539E0,-1.071000099E0
2.334673079E0,3.760950089E0,9.013950348E0,-8.839500546E-1
2.337116463E0,2.560950041E0,8.204999924E0,-2.299500108E-1
2.339559847E0,1.869000077E0,8.464050293E0,3.240000010E-1
2.342003461E0,1.531950116E0,9.454950333E0,6.229500175E-1
2.344446848E0,1.002000093E0,8.812950134E0,8.050500154E-1
2.346890233E0,1.036050081E0,8.847000122E0,7.290000319E-1
2.349333617E0,1.636950135E0,8.938050270E0,1.126049995E0
2.351777002E0,9.628950119E0,7.731000423E0,2.152950048E0
2.354220386E0,9.178950310E0,7.626000404E0,-1.614795113E1
2.356663790E0,4.504950047E0,5.691000462E0,-5.182050228E0
2.359107175E0,4.978950024E0,5.464050293E0,9.075000763E0
2.361550559E0,9.690000415E-1,9.574950218E0,4.033050060E0
2.363993943E0,4.029000282E0,8.394000053E0,-6.760500073E-1
2.366437403E0,6.105000496E0,6.985950470E0,-3.549000263E0
2.368880713E0,2.994000196E0,6.847950459E0,-1.234050035E0
2.371324173E0,4.165050030E0,7.185000420E0,3.789000273E0
2.373767559E0,3.696000099E0,7.822050571E0,1.938000083E0
2.376210944E0,6.604950428E0,8.301000595E0,-7.909500599E-1
2.378654329E0,6.591000080E0,6.625050545E0,-2.514000177E0
2.381097722E0,6.234000206E0,4.300050259E0,9.040500522E-1
2.383541107E0,1.367100048E1,4.756950378E0,-7.066050529E0
2.385984491E0,2.186595154E1,4.687950134E0,-3.051105118E1
2.388427875E0,1.609605026E1,2.686050177E0,-2.356305122E1
2.390871259E0,1.072800064E1,7.540500164E-1,-8.188950539E0
2.393314629E0,4.033950329E0,5.188050270E0,1.144950032E0
2.395758014E0,3.628950119E0,9.256050110E0,4.215000153E0
2.398201399E0,3.370050192E0,9.951000214E0,1.801050067E0
2.400645014E0,4.705950260E0,8.179050446E0,1.902000070E0
2.403088401E0,4.891050339E0,7.528050423E0,4.219500124E-1
2.405531771E0,4.394999981E0,6.916950226E0,6.000000052E-3
2.407975156E0,5.182950020E0,6.601050377E0,3.270000219E-1
2.410418540E0,4.891050339E0,7.537050247E0,7.189500332E-1
2.412861925E0,5.530050278E0,7.981950283E0,-2.040000111E-1
2.415305310E0,5.434050083E0,8.313000679E0,3.075000048E0
2.417748689E0,5.707050323E0,9.757050514E0,2.826000214E0
2.420192149E0,1.134795094E1,6.436050415E0,-6.349950314E0
2.422635535E0,9.907050133E0,4.189949989E0,-9.514950752E0
2.425078920E0,8.041950226E0,6.405000210E0,-4.423050404E0
2.427522305E0,5.038950443E0,7.507950306E0,-1.819950104E0
2.429965703E0,4.681950092E0,7.297950268E0,3.840000033E-1
2.432409088E0,5.731050491E0,7.057950497E0,-7.950000465E-3
2.434852473E0,5.953950405E0,7.528050423E0,-1.228950024E0
2.437295857E0,4.869000435E0,7.780950546E0,-3.159000158E0
2.439739241E0,5.391000271E0,7.318950176E0,-3.886050224E0
2.442182616E0,5.166000366E0,7.642050266E0,-3.283050060E0
2.444626231E0,4.984050274E0,7.585050583E0,-2.160000086E0
2.447069617E0,5.917950153E0,7.525050163E0,-1.441950083E0
2.449513002E0,5.202000141E0,7.345950127E0,-1.624050021E0
2.451956387E0,5.640000343E0,7.032000542E0,-2.637000084E0
2.454399771E0,5.728950500E0,7.225950241E0,-3.493950129E0
2.456843156E0,5.158950329E0,7.573050499E0,-2.998050213E0
2.459286541E0,5.547000408E0,7.077000141E0,-2.605050087E0
2.461729925E0,5.937000275E0,6.988950253E0,-2.170050144E0
2.464173308E0,5.491950035E0,7.381050587E0,-1.936950088E0
2.466616692E0,5.305050373E0,7.357950211E0,-2.304000139E0
2.469060076E0,5.812950134E0,7.185000420E0,-2.953050137E0
2.471503461E0,5.494050026E0,7.314000130E0,-2.914050102E0
2.473946846E0,5.443950176E0,7.305000305E0,-2.710950136E0
2.476390231E0,5.544000149E0,7.372050285E0,-2.071950197E0
2.478833691E0,5.755050182E0,7.294950485E0,-1.959000111E0
2.481277078E0,5.575050354E0,7.258950233E0,-2.320950031E0
2.483720463E0,5.365050316E0,7.438950539E0,-2.730000019E0
2.486163847E0,5.764950275E0,7.234950542E0,-2.911950111E0
2.488607232E0,5.800950050E0,7.015050411E0,-2.613000154E0
2.491050617E0,5.607000351E0,7.173000336E0,-2.134050131E0
2.493494230E0,5.623050213E0,7.362000465E0,-2.028000116E0
2.495937386E0,5.680950165E0,7.413000584E0,-2.184000015E0
2.498380999E0,5.518050194E0,7.336050510E0,-2.548050165E0
2.500824386E0,5.473050117E0,7.390950203E0,-2.731950045E0
2.503267770E0,5.542050362E0,7.501050472E0,-2.557950020E0
2.505711155E0,5.475000381E0,7.510950565E0,-2.265000105E0
2.508154540E0,5.604000092E0,7.249950409E0,-2.148000002E0
2.510597924E0,5.764950275E0,7.147050381E0,-2.248950005E0
2.513041309E0,5.698050499E0,7.255050182E0,-2.449950218E0
2.515484694E0,5.473050117E0,7.365000248E0,-2.541000128E0
2.517928078E0,5.595000267E0,7.243050575E0,-2.577000141E0
2.520371462E0,5.659050465E0,7.222950459E0,-2.457000017E0
2.522814846E0,5.419950485E0,7.410000324E0,-2.248950005E0
2.525258307E0,5.544000149E0,7.312050343E0,-2.281949997E0
2.527701694E0,5.568000317E0,7.291050434E0,-2.457000017E0
2.530145078E0,5.512950420E0,7.366950512E0,-2.586000204E0
2.532588463E0,5.467950344E0,7.362000465E0,-2.656050205E0
2.535031847E0,5.506050110E0,7.348050117E0,-2.553000212E0
2.537475246E0,5.475000381E0,7.314000130E0,-2.422950029E0
2.539918631E0,5.350050449E0,7.402950287E0,-2.341950178E0
2.542362015E0,5.520000458E0,7.374000549E0,-2.380050182E0
2.544805399E0,5.560950279E0,7.273950577E0,-2.602950096E0
2.547248783E0,5.524950027E0,7.282950401E0,-2.680050135E0
2.549692365E0,5.458050251E0,7.384050369E0,-2.605050087E0
2.552135752E0,5.439000130E0,7.401000500E0,-2.530950069E0
2.554579136E0,5.500950336E0,7.378950119E0,-2.425950050E0
2.557022521E0,5.394000053E0,7.398000240E0,-2.400000095E0
2.559465905E0,5.407950401E0,7.462950230E0,-2.473950148E0
2.561909305E0,5.452950478E0,7.456050396E0,-2.500050068E0
2.564352690E0,5.496000290E0,7.413000584E0,-2.505000114E0
2.566796074E0,5.451000214E0,7.414950371E0,-2.485950232E0
2.569239458E0,5.484000206E0,7.444050312E0,-2.485950232E0
2.571682903E0,5.461050034E0,7.465050220E0,-2.491050005E0
2.574126213E0,5.476950169E0,7.462950230E0,-2.458950043E0
2.576569673E0,5.496000290E0,7.426950455E0,-2.488050222E0
2.579013059E0,5.449050426E0,7.471950531E0,-2.541000128E0
2.581456444E0,5.440950394E0,7.465050220E0,-2.506950140E0
2.583899829E0,5.451000214E0,7.441050529E0,-2.488050222E0
2.586343213E0,5.425050259E0,7.470000267E0,-2.449950218E0
2.588786598E0,5.407950401E0,7.506000519E0,-2.458950043E0
2.591229982E0,5.383950233E0,7.474950314E0,-2.509950161E0
2.593673366E0,5.467950344E0,7.414950371E0,-2.553000212E0
2.596116765E0,5.434050083E0,7.405050278E0,-2.590950012E0
2.598560149E0,5.416950226E0,7.432050228E0,-2.602950096E0
2.601003534E0,5.470050335E0,7.389000416E0,-2.560050011E0
2.603447149E0,5.475000381E0,7.341000557E0,-2.584050179E0
2.605890536E0,5.500950336E0,7.318950176E0,-2.578950167E0
2.608333925E0,5.518050194E0,7.357950211E0,-2.589000225E0
2.610777309E0,5.482050419E0,7.342950344E0,-2.598000050E0
2.613220694E0,5.523000240E0,7.321950436E0,-2.586000204E0
2.615664078E0,5.503950119E0,7.333950520E0,-2.598000050E0
2.618107463E0,5.484000206E0,7.336050510E0,-2.613000154E0
2.620550834E0,5.496000290E0,7.350000381E0,-2.601000071E0
2.622994293E0,5.413050175E0,7.357950211E0,-2.554950237E0
2.625437680E0,5.275950432E0,7.285950184E0,-2.067000151E0
2.627881064E0,5.760000229E0,6.393000126E0,-8.205000311E-2
2.630324449E0,8.398050308E0,4.554000378E0,2.638950109E0
2.632767839E0,7.738050461E0,8.707950592E0,-5.493000031E0
2.635211223E0,4.125000000E0,8.787000656E0,-7.042050362E0
2.637654608E0,3.058950186E0,8.101950645E0,-7.768050194E0
2.640097993E0,3.978000164E0,7.687950134E0,-3.814950228E0
2.642541377E0,5.724000454E0,7.480050564E0,-2.260500044E-1
2.644984991E0,5.631000042E0,7.654050350E0,1.356000066E0
2.647428146E0,5.473050117E0,7.531950474E0,1.609500051E-1
2.649871760E0,5.530050278E0,7.288050175E0,-2.791950226E0
2.652314916E0,5.245050430E0,7.650000572E0,-5.344950199E0
2.654758529E0,4.953000069E0,7.555950165E0,-5.740050316E0
2.657201685E0,5.188050270E0,7.647000313E0,-3.505950212E0
2.659645298E0,5.377050400E0,7.510950565E0,-1.213950038E0
2.662088685E0,5.527950287E0,7.390950203E0,-4.189500213E-1
2.664532069E0,5.599050045E0,7.350000381E0,-1.387050033E0
2.666975454E0,5.839050293E0,6.915000439E0,-2.779950142E0
2.669418848E0,5.626050472E0,7.104000568E0,-3.649050236E0
2.671862232E0,5.298000336E0,7.425000191E0,-3.297000170E0
2.674305617E0,5.635050297E0,7.362000465E0,-2.557950020E0
2.676749077E0,7.006950378E0,6.745050430E0,-2.811000109E0
2.679192463E0,8.262000084E0,6.859950542E0,-4.249950409E0
2.681635852E0,4.222949982E0,6.735000134E0,-9.150000215E-1
2.684079236E0,2.407950163E0,7.932000160E0,2.400000095E-1
2.686522621E0,3.775050163E0,1.036200047E1,-7.710000277E-1
2.688966006E0,4.479000092E0,7.009950161E0,-2.301000118E0
2.691409390E0,6.016050339E0,6.967050552E0,-4.995000362E0
2.693853004E0,6.442050457E0,7.060950279E0,-4.842000008E0
2.696296390E0,5.652000427E0,7.003050327E0,-2.743950129E0
2.698739775E0,4.812000275E0,7.720950603E0,-8.740500212E-1
2.701183160E0,4.768950462E0,7.786050320E0,-2.700000070E-2
2.703626531E0,5.592000484E0,7.300050259E0,-2.328000069E0
2.706069916E0,6.540000439E0,6.972000122E0,-4.213950157E0
2.708513300E0,6.598050117E0,7.018050194E0,-5.143050194E0
2.710956685E0,5.713950157E0,7.105950356E0,-3.568050146E0
2.713400083E0,5.443950176E0,7.285950184E0,-1.534950018E0
2.715843467E0,5.608950138E0,7.305000305E0,-5.730000138E-1
2.718286851E0,5.760000229E0,7.152000427E0,-1.216950059E0
2.720730235E0,5.677950382E0,7.326000214E0,-2.494950056E0
2.723173619E0,5.209050179E0,7.342950344E0,-3.465000153E0
2.725616995E0,5.476950169E0,7.408050537E0,-3.666000128E0
2.728060456E0,5.713950157E0,7.200000286E0,-2.722950220E0
2.730503843E0,5.635050297E0,7.270950317E0,-1.875000119E0
2.732947228E0,5.532000065E0,7.314000130E0,-1.533000112E0
2.735390612E0,5.752950191E0,7.213950157E0,-2.203050137E0
2.737833997E0,5.611050129E0,7.237950325E0,-2.883000135E0
2.740277381E0,5.428950310E0,7.333950520E0,-3.187050104E0
2.742720995E0,5.547000408E0,7.369950294E0,-2.838000059E0
2.745164381E0,5.556000233E0,7.393050194E0,-2.182049990E0
2.747607766E0,5.484000206E0,7.354950428E0,-1.879950047E0
2.750051151E0,5.680950165E0,7.237950325E0,-2.151000023E0
2.752494535E0,5.548950195E0,7.318950176E0,-2.584050179E0
2.754937920E0,5.458050251E0,7.390950203E0,-2.902050257E0
2.757381304E0,5.695050240E0,7.207050323E0,-2.758950233E0
2.759824689E0,5.644950390E0,7.249950409E0,-2.364000082E0
2.762268074E0,5.572950363E0,7.297950268E0,-2.068950176E0
2.764711533E0,5.643000126E0,7.264050484E0,-2.173950195E0
2.767154920E0,5.580000401E0,7.216050148E0,-2.425950050E0
2.769598305E0,5.608950138E0,7.216050148E0,-2.689050198E0
2.772041703E0,5.532000065E0,7.269000530E0,-2.683950186E0
2.774485088E0,5.511000156E0,7.321950436E0,-2.458950043E0
2.776928472E0,5.547000408E0,7.281000137E0,-2.265000105E0
2.779371857E0,5.548950195E0,7.341000557E0,-2.254050016E0
2.781815242E0,5.512950420E0,7.348050117E0,-2.433000088E0
2.784258612E0,5.484000206E0,7.374000549E0,-2.572050095E0
2.786701996E0,5.464950085E0,7.333950520E0,-2.590950012E0
2.789145380E0,5.524950027E0,7.291050434E0,-2.428050041E0
2.791588764E0,5.511000156E0,7.348050117E0,-2.281949997E0
2.794032149E0,5.527950287E0,7.326000214E0,-2.268000126E0
2.796475769E0,5.607000351E0,7.288050175E0,-2.422950029E0
2.798919156E0,5.584950447E0,7.270950317E0,-2.548050165E0
2.801362540E0,5.626050472E0,7.297950268E0,-2.254050016E0
2.803805925E0,5.563950062E0,7.369950294E0,-2.536050081E0
2.806249310E0,5.500950336E0,7.279050350E0,-2.419050217E0
2.808692708E0,5.686050415E0,7.204050541E0,-2.353950024E0
2.811136093E0,5.656950474E0,7.231050491E0,-2.268000126E0
2.813579477E0,5.643000126E0,7.233000278E0,-2.304000139E0
2.816022937E0,5.664000034E0,7.213950157E0,-2.404050112E0
2.818466324E0,5.595000267E0,7.257000446E0,-2.388000011E0
2.820909703E0,5.619000435E0,7.264050484E0,-2.351999998E0
2.823353088E0,5.632950306E0,7.294950485E0,-2.359050035E0
2.825796472E0,5.539950371E0,7.348050117E0,-2.313000202E0
2.828239857E0,5.560950279E0,7.360050201E0,-2.316000223E0
2.830683242E0,5.548950195E0,7.348050117E0,-2.311050177E0
2.833126626E0,5.580000401E0,7.333950520E0,-2.323050022E0
2.835570010E0,5.551950455E0,7.350000381E0,-2.337000132E0
2.838013624E0,5.491950035E0,7.377000332E0,-2.359050035E0
2.840456780E0,5.532000065E0,7.377000332E0,-2.364000082E0
2.842900394E0,5.566050053E0,7.326000214E0,-2.371050119E0
2.845343780E0,5.578050137E0,7.324050426E0,-2.395050049E0
2.847787165E0,5.575050354E0,7.330950260E0,-2.368050098E0
2.850230549E0,5.580000401E0,7.306950569E0,-2.356050014E0
2.852673934E0,5.592000484E0,7.288050175E0,-2.389950037E0
2.855117319E0,5.611050129E0,7.291050434E0,-2.392050028E0
2.857560679E0,5.580000401E0,7.312050343E0,-2.425950050E0
2.860004064E0,5.592000484E0,7.300050259E0,-2.421000004E0
2.862447449E0,5.623050213E0,7.281000137E0,-2.434950113E0
2.864890908E0,5.602050304E0,7.294950485E0,-2.446950197E0
2.867334295E0,5.583000183E0,7.276050568E0,-2.469000101E0
2.869777675E0,5.583000183E0,7.312050343E0,-2.538000107E0
2.872221060E0,5.539950371E0,7.317000389E0,-2.469000101E0
2.874664445E0,5.524950027E0,7.342950344E0,-2.470950127E0
2.877107829E0,5.515950203E0,7.353000164E0,-2.488050222E0
2.879551214E0,5.532000065E0,7.338000298E0,-2.524050236E0
2.881994598E0,5.487000465E0,7.357950211E0,-2.542950153E0
2.884437982E0,5.458050251E0,7.369950294E0,-2.512050152E0
2.886881366E0,5.487000465E0,7.389000416E0,-2.467050076E0
2.889324981E0,5.503950119E0,7.377000332E0,-2.505000114E0
2.891768151E0,5.475000381E0,7.350000381E0,-2.562000036E0
2.894211764E0,5.484000206E0,7.377000332E0,-2.590950012E0
2.896655151E0,5.511000156E0,7.336050510E0,-2.529000044E0
2.899098536E0,5.499000072E0,7.362000465E0,-2.505000114E0
2.901541920E0,5.470050335E0,7.401000500E0,-2.514000177E0
2.903985290E0,5.487000465E0,7.386000156E0,-2.557950020E0
2.906428674E0,5.482050419E0,7.350000381E0,-2.682000160E0
2.908872059E0,5.496000290E0,7.350000381E0,-2.203050137E0
2.911315444E0,5.464950085E0,7.507950306E0,-2.818950176E0
2.913758903E0,5.275950432E0,7.537050247E0,-2.661000013E0
2.916202286E0,5.403000355E0,7.531950474E0,-2.646000147E0
2.918645670E0,5.404950142E0,7.293000221E0,-2.548050165E0
2.921089055E0,5.551950455E0,7.401000500E0,-2.467050076E0
2.923532440E0,5.371950150E0,7.449000359E0,-2.613000154E0
2.925975824E0,5.305050373E0,7.456050396E0,-2.614950180E0
2.928419209E0,5.631000042E0,7.273950577E0,-2.752050161E0
2.930862822E0,5.475000381E0,7.422000408E0,-2.656050205E0
2.933306209E0,5.371950150E0,7.410000324E0,-2.613000154E0
2.935749594E0,5.536950111E0,7.374000549E0,-2.589000225E0
2.938192978E0,5.482050419E0,7.377000332E0,-2.545950174E0
2.940636363E0,5.389050484E0,7.449000359E0,-2.637000084E0
2.943079747E0,5.484000206E0,7.437000275E0,-2.770950079E0
2.945523132E0,5.395950317E0,7.426950455E0,-2.773050070E0
2.947966517E0,5.506050110E0,7.360050201E0,-2.668050051E0
2.950409901E0,5.520000458E0,7.413000584E0,-2.533950090E0
2.952853299E0,5.446050167E0,7.413000584E0,-2.629050016E0
2.955296683E0,5.470050335E0,7.434000492E0,-2.734950066E0
2.957740067E0,5.281050205E0,7.434000492E0,-2.851950169E0
2.960183452E0,5.437050343E0,7.408050537E0,-2.713050127E0
2.962626913E0,5.413050175E0,7.393050194E0,-2.529000044E0
2.965070300E0,5.427000046E0,7.366950512E0,-2.461950064E0
2.967513685E0,5.520000458E0,7.354950428E0,-2.536050081E0
2.969957069E0,5.365050316E0,7.441050529E0,-2.728050232E0
2.972400454E0,5.334000111E0,7.458000183E0,-2.919000149E0
2.974843838E0,5.475000381E0,7.567950249E0,-2.761050224E0
2.977287223E0,5.161050320E0,7.506000519E0,-2.701050043E0
2.979730836E0,5.476950169E0,7.389000416E0,-2.377950191E0
2.982174223E0,5.680950165E0,7.321950436E0,-2.503050089E0
2.984617608E0,5.286000252E0,7.401000500E0,-2.653050184E0
2.987060992E0,5.500950336E0,7.306950569E0,-2.838000059E0
2.989504372E0,5.527950287E0,7.350000381E0,-2.773050070E0
2.991947757E0,5.305050373E0,7.422000408E0,-2.548050165E0
2.994391141E0,5.449050426E0,7.336050510E0,-2.481000185E0
2.996834526E0,5.500950336E0,7.350000381E0,-2.409000158E0
2.999277985E0,5.427000046E0,7.329000473E0,-2.554950237E0
3.001721281E0,5.604000092E0,7.285950184E0,-2.731950045E0
3.004164741E0,5.578050137E0,7.273950577E0,-2.802000046E0
3.006608050E0,5.556000233E0,7.294950485E0,-2.737050056E0
3.009051433E0,5.443950176E0,7.377000332E0,-2.521950006E0
3.011494894E0,5.482050419E0,7.312050343E0,-2.428050041E0
3.013938281E0,5.713950157E0,7.209000111E0,-2.464050055E0
3.016381666E0,5.611050129E0,7.185000420E0,-2.526000023E0
3.018825050E0,5.520000458E0,7.219050407E0,-2.602950096E0
3.021268435E0,5.592000484E0,7.270950317E0,-2.560050011E0
3.023711829E0,5.604000092E0,7.309950352E0,-2.517000198E0
3.026155442E0,5.556000233E0,7.354950428E0,-2.529000044E0
3.028598829E0,5.623050213E0,7.348050117E0,-2.526000023E0
3.031042213E0,5.602050304E0,7.374000549E0,-2.605050087E0
3.033485598E0,5.568000317E0,7.336050510E0,-2.629050016E0
3.035928977E0,5.604000092E0,7.305000305E0,-2.601000071E0
3.038372362E0,5.587050438E0,7.237950325E0,-2.533950090E0
3.040815747E0,5.568000317E0,7.221000195E0,-2.380050182E0
3.043259131E0,5.587050438E0,7.219050407E0,-2.275050163E0
3.045702515E0,5.536950111E0,7.246950150E0,-2.248950005E0
3.048145989E0,5.551950455E0,7.282950401E0,-2.455050230E0
3.050589376E0,5.554050446E0,7.372050285E0,-2.572050095E0
3.053032761E0,5.563950062E0,7.413000584E0,-2.749050140E0
3.055476145E0,5.484000206E0,7.492050171E0,-2.707950115E0
3.057919530E0,5.427000046E0,7.483950138E0,-2.517000198E0
3.060362915E0,5.395950317E0,7.429050446E0,-2.404050112E0
3.062806299E0,5.391000271E0,7.360050201E0,-2.332950115E0
3.065249683E0,5.512950420E0,7.285950184E0,-2.428050041E0
3.067693067E0,5.452950478E0,7.252050400E0,-2.467050076E0
3.070136451E0,5.494050026E0,7.341000557E0,-2.469000101E0
3.072580066E0,5.674050331E0,7.360050201E0,-2.467050076E0
3.075023222E0,5.631000042E0,7.426950455E0,-2.409000158E0
3.077466836E0,5.410050392E0,7.495950222E0,-2.433000088E0
3.079910222E0,5.512950420E0,7.357950211E0,-2.443050146E0
3.082353607E0,5.602050304E0,7.350000381E0,-2.347050190E0
3.084796992E0,5.443950176E0,7.365000248E0,-2.236950159E0
3.087240376E0,5.572950363E0,7.381050587E0,-2.103000164E0
3.089683761E0,5.607000351E0,7.449000359E0,-2.158050060E0
3.092127220E0,5.475000381E0,7.575000286E0,-2.196000099E0
3.094570607E0,5.281050205E0,7.669050217E0,-2.277000189E0
3.097014006E0,5.293050289E0,7.555950165E0,-2.143050194E0
3.099457390E0,5.607000351E0,7.566000462E0,-1.638000131E0
3.101900775E0,5.595000267E0,7.396050453E0,-1.782000065E0
3.104344159E0,5.386050224E0,7.489050388E0,-2.361000061E0
3.106787544E0,5.578050137E0,7.449000359E0,-2.586000204E0
3.109230949E0,5.475000381E0,7.566000462E0,-2.797050238E0
3.111674333E0,5.070000172E0,7.759950161E0,-2.536050081E0
3.114117717E0,5.152050018E0,7.710000515E0,-2.569950104E0
3.116561101E0,5.266950130E0,7.767000198E0,-2.943000078E0
3.119004485E0,4.795050144E0,7.654050350E0,-3.178050041E0
3.121448096E0,4.801950455E0,7.519950390E0,-3.111000061E0
3.123891251E0,5.443950176E0,7.350000381E0,-2.050050020E0
3.126334865E0,5.668950081E0,7.204050541E0,-1.405950069E0
3.128778251E0,6.034950256E0,7.032000542E0,-1.564050078E0
3.131221626E0,6.190950394E0,7.096950531E0,-2.554950237E0
3.133665011E0,5.845950127E0,7.113000393E0,-3.277950048E0
3.136108395E0,5.440950394E0,7.366950512E0,-3.264000177E0
3.138551780E0,5.784000397E0,7.209000111E0,-2.184000015E0
3.140995239E0,5.893950462E0,7.240050316E0,-1.047000051E0
3.143438612E0,5.764950275E0,7.183050156E0,-8.500500321E-1
3.145881997E0,5.752950191E0,7.276050568E0,-1.497000098E0
3.148325381E0,5.620950222E0,7.458000183E0,-2.574000120E0
3.150768766E0,5.299950123E0,7.711950302E0,-3.028950214E0
3.153212151E0,5.164050102E0,7.836000443E0,-2.823000193E0
3.155655520E0,5.310000420E0,7.774050236E0,-1.969050050E0
3.158098904E0,5.512950420E0,7.540050507E0,-1.459050059E0
3.160542288E0,5.752950191E0,7.195050240E0,-1.687950134E0
3.162985672E0,5.938950062E0,6.903000355E0,-2.443050146E0
3.165429057E0,6.058950424E0,6.852000237E0,-2.881050110E0
3.167872442E0,6.013950348E0,6.915000439E0,-2.782950163E0
3.170316057E0,5.820000172E0,7.045950413E0,-2.209950209E0
3.172759443E0,5.772000313E0,7.177950382E0,-1.755000114E0
3.175202828E0,5.800950050E0,7.113000393E0,-1.969050050E0
3.177646213E0,5.695050240E0,7.084950447E0,-2.481000185E0
3.180089607E0,5.635050297E0,7.080000401E0,-2.839950085E0
3.182532992E0,5.688000202E0,6.988950253E0,-2.794950247E0
3.184976376E0,5.724000454E0,6.856950283E0,-2.304000139E0
3.187419761E0,5.845950127E0,6.955050468E0,-1.834950089E0
3.189863221E0,5.923050404E0,7.000950336E0,-1.815000057E0
3.192306612E0,5.881950378E0,7.036950111E0,-2.218050003E0
3.194749997E0,5.974950314E0,7.020000458E0,-2.542950153E0
3.197193381E0,5.977950096E0,6.985950470E0,-2.565000057E0
3.199636766E0,5.974950314E0,7.015050411E0,-2.086050034E0
3.202080151E0,6.010950089E0,7.033950329E0,-1.777050138E0
3.204523539E0,6.090000153E0,6.985950470E0,-1.777050138E0
3.206967153E0,6.045000076E0,7.051050186E0,-1.903950095E0
3.209410539E0,5.740950108E0,7.228050232E0,-1.960950136E0
3.211853924E0,5.560950279E0,7.350000381E0,-1.957050085E0
3.214297309E0,5.539950371E0,7.396050453E0,-2.011950016E0
3.216740698E0,5.596950054E0,7.432050228E0,-2.088000059E0
3.219184083E0,5.374050140E0,7.330950260E0,-2.323050022E0
3.221627467E0,5.464950085E0,7.245000362E0,-2.289000034E0
3.224070852E0,5.833950043E0,7.060950279E0,-2.191050053E0
3.226514237E0,5.805000305E0,7.125000477E0,-2.115000010E0
3.228957621E0,6.093000412E0,6.997950554E0,-2.380050182E0
3.231401005E0,5.772000313E0,7.135050297E0,-2.683950186E0
3.233844389E0,5.761950493E0,7.042050362E0,-2.512050152E0
3.236287773E0,5.731050491E0,7.051050186E0,-2.092950106E0
3.238731235E0,5.701950073E0,7.032000542E0,-1.987950087E0
3.241174607E0,5.614050388E0,7.006050110E0,-2.031000137E0
3.243617992E0,5.865000248E0,6.939000130E0,-2.242050171E0
3.246061377E0,6.006000519E0,6.939000130E0,-2.280000210E0
3.248504761E0,5.896050453E0,7.024950504E0,-2.332950115E0
3.250948146E0,5.941950321E0,7.192050457E0,-2.380050182E0
3.253391763E0,5.683050156E0,7.183050156E0,-2.493000031E0
3.255834919E0,5.439000130E0,7.200000286E0,-2.371050119E0
3.258278532E0,5.856000423E0,6.979050159E0,-2.176950216E0
3.260721919E0,5.992050171E0,7.008000374E0,-2.115000010E0
3.263165304E0,5.977950096E0,6.964950562E0,-2.191050053E0
3.265608703E0,5.824050426E0,7.039050102E0,-2.329950094E0
3.268052088E0,5.757000446E0,7.192050457E0,-2.111999989E0
3.270495473E0,5.914950371E0,7.125000477E0,-1.918050051E0
3.272938857E0,5.683050156E0,7.294950485E0,-1.795950055E0
3.275382242E0,5.872050285E0,7.338000298E0,-1.834950089E0
3.277825626E0,5.917950153E0,7.324050426E0,-2.119050026E0
3.280269010E0,5.911050320E0,7.246950150E0,-2.263050079E0
3.282712471E0,5.889000416E0,7.297950268E0,-2.064000130E0
3.285155857E0,5.889000416E0,7.360050201E0,-1.930050135E0
3.287599242E0,5.856000423E0,7.414950371E0,-1.798950076E0
3.290042616E0,5.953950405E0,7.401000500E0,-1.935000062E0
3.292486001E0,6.100050449E0,7.329000473E0,-2.110050201E0
3.294929386E0,6.016050339E0,7.336050510E0,-2.236950159E0
3.297372770E0,6.097050190E0,7.255050182E0,-2.152950048E0
3.299816154E0,6.220050335E0,7.234950542E0,-2.100000143E0
3.302259749E0,6.058950424E0,7.281000137E0,-2.059950113E0
3.304703136E0,6.150000095E0,7.369950294E0,-2.028000116E0
3.307146521E0,6.076050282E0,7.329000473E0,-2.110050201E0
3.309589905E0,6.082950115E0,7.405050278E0,-2.301000118E0
3.312033295E0,6.138000488E0,7.453050137E0,-2.376000166E0
3.314476679E0,6.342000484E0,7.482000351E0,-2.409000158E0
3.316920064E0,6.178950310E0,7.449000359E0,-2.347050190E0
3.319363449E0,6.298950195E0,7.462950230E0,-2.301000118E0
3.321806833E0,6.330000401E0,7.446000576E0,-2.221950054E0
3.324250217E0,6.397050381E0,7.396050453E0,-2.176950216E0
3.326693677E0,6.471000195E0,7.338000298E0,-2.164950132E0
3.329136987E0,6.639000416E0,7.243050575E0,-2.134050131E0
3.331580447E0,6.627000332E0,7.180050373E0,-2.103000164E0
3.334023833E0,6.655050278E0,7.201950550E0,-2.203050137E0
3.336467217E0,6.604950428E0,7.246950150E0,-2.158050060E0
3.338910602E0,6.343950272E0,7.410000324E0,-2.256000042E0
3.341353986E0,6.339000225E0,7.417050362E0,-2.196000099E0
3.343797371E0,6.319950104E0,7.461000443E0,-2.289000034E0
3.346240755E0,6.184050083E0,7.474950314E0,-2.263050079E0
3.348684384E0,6.153000355E0,7.513050556E0,-2.221950054E0
3.351127770E0,6.253050327E0,7.441050529E0,-2.256000042E0
3.353571155E0,6.153000355E0,7.507950306E0,-2.263050079E0
3.356014540E0,6.142950058E0,7.362000465E0,-2.263050079E0
3.358457924E0,6.214950085E0,7.422000408E0,-2.347050190E0
3.360901309E0,6.141000271E0,7.360050201E0,-2.248950005E0
3.363344768E0,6.301050186E0,7.173000336E0,-2.530950069E0
3.365788155E0,6.406050205E0,7.180050373E0,-2.593050241E0
3.368231540E0,6.109050274E0,7.222950459E0,-2.610000134E0
3.370674924E0,5.889000416E0,7.164000511E0,-2.608050108E0
3.373118314E0,5.805000305E0,7.338000298E0,-2.452050209E0
3.375561699E0,5.821950436E0,7.246950150E0,-2.401950121E0
3.378005083E0,5.578050137E0,7.372050285E0,-2.574000120E0
3.380448467E0,5.479950428E0,7.353000164E0,-2.698950052E0
3.382891851E0,5.395950317E0,7.393050194E0,-2.775000095E0
3.385335230E0,5.508000374E0,7.432050228E0,-2.574000120E0
3.387778615E0,5.371950150E0,7.390950203E0,-2.349000216E0
3.390222000E0,5.443950176E0,7.282950401E0,-2.011950016E0
3.392665385E0,5.494050026E0,7.137000561E0,-1.894050121E0
3.395108770E0,5.607000351E0,7.075050354E0,-2.203050137E0
3.397552379E0,5.677950382E0,6.982050419E0,-2.620050192E0
3.399995766E0,5.439000130E0,7.032000542E0,-2.674950123E0
3.402439150E0,5.547000408E0,6.985950470E0,-2.248950005E0
3.404882535E0,5.536950111E0,6.915000439E0,-1.861050129E0
3.407325919E0,5.425050259E0,7.009950161E0,-1.818000078E0
3.409769289E0,5.347950459E0,7.024950504E0,-2.148000002E0
3.412212674E0,5.247000217E0,7.135050297E0,-2.565000057E0
3.414656133E0,5.152050018E0,7.234950542E0,-2.673000097E0
3.417099443E0,5.104050159E0,7.306950569E0,-2.347050190E0
3.419542902E0,5.154000282E0,7.314000130E0,-1.794000030E0
3.421986289E0,5.173050404E0,7.321950436E0,-1.416000009E0
3.424429674E0,5.209050179E0,7.326000214E0,-1.513950109E0
3.426873058E0,5.347950459E0,7.209000111E0,-2.031000137E0
3.429316443E0,5.413050175E0,7.116000175E0,-2.419050217E0
3.431759833E0,5.449050426E0,7.075050354E0,-2.323050022E0
3.434203217E0,5.596950054E0,7.065000534E0,-1.882050037E0
3.436646601E0,5.671050072E0,6.979050159E0,-1.411050081E0
3.439089985E0,5.700000286E0,6.952950478E0,-1.404000044E0
3.441533600E0,5.796000481E0,6.903000355E0,-1.732050061E0
3.443977001E0,5.793000221E0,6.952950478E0,-2.245950222E0
3.446420386E0,5.769000053E0,6.927000523E0,-2.437950134E0
3.448863771E0,5.820000172E0,6.940950394E0,-2.293950081E0
3.451307155E0,5.773950100E0,6.996000290E0,-1.945050120E0
3.453750540E0,5.788950443E0,7.053000450E0,-1.723950028E0
3.456193915E0,5.824050426E0,7.081950188E0,-1.890000105E0
3.458637374E0,5.809950352E0,7.048950195E0,-2.269950151E0
3.461080761E0,5.856000423E0,7.077000141E0,-2.479050159E0
3.463524145E0,5.901000500E0,7.104000568E0,-2.407050133E0
3.465967530E0,5.848050117E0,7.084950447E0,-2.191050053E0
3.468410915E0,5.913000107E0,7.116000175E0,-2.055000067E0
3.470854299E0,5.868000507E0,7.173000336E0,-2.088000059E0
3.473297684E0,5.773950100E0,7.197000504E0,-2.325000048E0
3.475741068E0,5.860050201E0,7.228050232E0,-2.517000198E0
3.478184452E0,5.752950191E0,7.246950150E0,-2.586000204E0
3.480627831E0,5.713950157E0,7.255050182E0,-2.542950153E0
3.483071446E0,5.796000481E0,7.219050407E0,-2.467050076E0
3.485514602E0,5.767050266E0,7.120950222E0,-2.503050089E0
3.487958215E0,5.767050266E0,6.931050301E0,-2.641050100E0
3.490401602E0,5.817000389E0,6.783000469E0,-2.878050089E0
3.492844987E0,5.788950443E0,6.613050461E0,-3.082050085E0
3.495288371E0,5.856000423E0,6.475950241E0,-3.226050138E0
3.497731756E0,5.857950211E0,6.345000267E0,-3.223050117E0
3.500175140E0,5.887050152E0,6.349950314E0,-3.187050104E0
3.502618525E0,5.755050182E0,6.430950165E0,-3.001050234E0
3.505061990E0,5.590050220E0,6.667950153E0,-2.850000143E0
3.507505376E0,5.530050278E0,6.748950481E0,-2.728050232E0
3.509948761E0,5.470050335E0,6.790050507E0,-2.826000214E0
3.512392145E0,5.556000233E0,6.751950264E0,-3.136950254E0
3.514835530E0,5.482050419E0,6.792000294E0,-3.277950048E0
3.517278910E0,5.416950226E0,6.844950199E0,-3.144000053E0
3.519722294E0,5.566050053E0,6.799950123E0,-2.707950115E0
3.522165678E0,5.563950062E0,6.835950375E0,-2.377950191E0
3.524609292E0,5.496000290E0,6.886050224E0,-2.349000216E0
3.527052679E0,5.559000492E0,6.946050167E0,-2.533950090E0
3.529496069E0,5.608950138E0,6.927000523E0,-2.797050238E0
3.531939453E0,5.551950455E0,6.943050385E0,-2.911950111E0
3.534382607E0,5.494050026E0,6.951000214E0,-2.922000170E0
3.536826220E0,5.451000214E0,6.996000290E0,-2.767950058E0
3.539269607E0,5.271000385E0,7.069950104E0,-2.695950031E0
3.541713006E0,5.098950386E0,7.185000420E0,-2.625000238E0
3.544156390E0,4.996050358E0,7.210950375E0,-2.638950109E0
3.546599775E0,4.897950172E0,7.188000202E0,-2.530950069E0
3.549043160E0,4.869000435E0,7.168050289E0,-2.301000118E0
3.551486619E0,4.918950081E0,7.165950298E0,-2.232000113E0
3.553930006E0,5.046000004E0,7.042050362E0,-2.184000015E0
3.556373390E0,5.032050133E0,7.048950195E0,-2.320950031E0
3.558816775E0,5.109000206E0,6.997950554E0,-2.530950069E0
3.561260160E0,5.161050320E0,6.934050560E0,-2.422950029E0
3.563703530E0,5.226000309E0,6.936000347E0,-2.452050209E0
3.566146915E0,5.532000065E0,6.771000385E0,-2.425950050E0
3.568590528E0,5.322000027E0,6.630000114E0,-2.505000114E0
3.571033915E0,5.263950348E0,6.615000248E0,-2.320950031E0
3.573477299E0,5.901000500E0,6.486000538E0,-2.653050184E0
3.575920684E0,5.977950096E0,6.610950470E0,-3.280950069E0
3.578364069E0,5.628000259E0,6.867000103E0,-2.932950258E0
3.580807453E0,5.491950035E0,6.996000290E0,-2.596050024E0
3.583250838E0,4.891050339E0,7.297950268E0,-3.058050156E0
3.585694223E0,4.510050297E0,7.264050484E0,-1.948950052E0
3.588137607E0,5.077050209E0,7.072950363E0,-1.497000098E0
3.590580991E0,5.286000252E0,7.267050266E0,-2.011950016E0
3.593024375E0,5.239950180E0,7.561050415E0,-2.292000055E0
3.595467759E0,5.041950226E0,7.738050461E0,-2.388000011E0
3.597911221E0,5.122950077E0,8.016000748E0,-2.746950150E0
3.600354606E0,4.717950344E0,8.313000679E0,-3.348000050E0
3.602797991E0,4.098000050E0,8.626950264E0,-3.511050224E0
3.605241375E0,3.811050177E0,8.152050018E0,-2.919000149E0
3.607684760E0,4.477050304E0,7.516050339E0,-1.942050099E0
3.610128145E0,5.374050140E0,7.129950523E0,-1.485000014E0
3.612571545E0,5.508000374E0,7.039050102E0,-2.092950106E0
3.615015159E0,5.686050415E0,7.177950382E0,-3.202050209E0
3.617458545E0,5.317050457E0,7.606950283E0,-3.669000149E0
3.619901930E0,5.398050308E0,7.860000610E0,-3.760050297E0
3.622345315E0,5.104050159E0,7.882050514E0,-3.640050173E0
3.624788694E0,4.338000298E0,8.112000465E0,-3.324000120E0
3.627232079E0,4.237050056E0,7.783950329E0,-2.470950127E0
3.629675463E0,5.137050152E0,7.132050514E0,-2.458950043E0
3.632118848E0,5.451000214E0,7.185000420E0,-2.517000198E0
3.634562233E0,5.209050179E0,7.372050285E0,-3.123000145E0
3.637005598E0,5.245050430E0,7.578000546E0,-3.738000154E0
3.639448982E0,5.073000431E0,8.242950439E0,-3.762000084E0
3.641892366E0,4.531949997E0,8.479949951E0,-3.843000174E0
3.644335827E0,4.237050056E0,8.533050537E0,-3.573000193E0
3.646779214E0,4.105050087E0,8.325000763E0,-2.649000168E0
3.649222593E0,4.582050323E0,7.516050339E0,-2.491050005E0
3.651665978E0,5.484000206E0,7.378950119E0,-2.308950186E0
3.654109363E0,5.386050224E0,7.243050575E0,-2.950050116E0
3.656552747E0,5.379000187E0,7.437000275E0,-3.726000071E0
3.658996361E0,5.032050133E0,8.337000847E0,-3.750000238E0
3.661439766E0,4.654050350E0,8.296050072E0,-4.000950336E0
3.663883151E0,4.374000072E0,8.679000854E0,-3.352050066E0
3.666326535E0,4.303950310E0,8.338950157E0,-2.773050070E0
3.668769920E0,4.800000191E0,7.942050457E0,-2.898000240E0
3.671213305E0,4.765950203E0,7.906050205E0,-3.024000168E0
3.673656689E0,4.776000023E0,7.566000462E0,-3.205950260E0
3.676100149E0,5.133000374E0,7.768950462E0,-2.926050186E0
3.678543459E0,4.720950127E0,8.065950394E0,-2.845050097E0
3.680986841E0,4.363950253E0,8.361000061E0,-2.677050114E0
3.683430226E0,4.291950226E0,8.800950050E0,-2.641050100E0
3.685873610E0,4.002000332E0,8.562000275E0,-3.148950100E0
3.688317072E0,3.943050146E0,8.800950050E0,-3.216000080E0
3.690760459E0,4.159950256E0,8.634000778E0,-3.163050175E0
3.693203843E0,4.254000187E0,8.485050201E0,-2.893050194E0
3.695647228E0,4.657950401E0,8.377950668E0,-2.605050087E0
3.698090607E0,4.714050293E0,8.442000389E0,-2.869050026E0
3.700533992E0,4.552950382E0,8.530950546E0,-3.316950083E0
3.702977377E0,4.776000023E0,8.401050568E0,-3.778950214E0
3.705420990E0,4.387950420E0,8.449049950E0,-3.841050148E0
3.707864377E0,4.797000408E0,8.148000717E0,-3.676050186E0
3.710307780E0,4.603050232E0,8.184000015E0,-3.159000158E0
3.712751165E0,5.098950386E0,8.023050308E0,-2.634000063E0
3.715194550E0,4.966950417E0,7.852950573E0,-2.902050257E0
3.717637934E0,5.068050385E0,8.344050407E0,-2.991000175E0
3.720081394E0,4.539000034E0,8.080950737E0,-3.645000219E0
3.722524699E0,4.192049980E0,8.503950119E0,-3.669000149E0
3.724968159E0,4.512000084E0,7.992000580E0,-3.670950174E0
3.727411546E0,3.832050085E0,8.506950378E0,-2.890050173E0
3.729854930E0,4.623000145E0,7.747950554E0,-2.680050135E0
3.732298286E0,4.054950237E0,8.029950142E0,-2.526000023E0
3.734741670E0,4.102950096E0,7.795950413E0,-2.938050032E0
3.737185055E0,3.751050234E0,8.155050278E0,-2.742000103E0
3.739628440E0,4.431000233E0,7.618950367E0,-3.091950178E0
3.742071824E0,3.550050259E0,8.095050812E0,-2.665050030E0
3.744515222E0,4.186950207E0,7.465050220E0,-2.887950182E0
3.746958606E0,3.949950218E0,7.759950161E0,-2.596050024E0
3.749401990E0,4.423950195E0,7.329000473E0,-2.881050110E0
3.751845606E0,4.042950153E0,7.513050556E0,-2.826000214E0
3.754288992E0,4.438050270E0,7.420050144E0,-3.187050104E0
3.756732377E0,3.946950197E0,7.756950378E0,-3.181950092E0
3.759175761E0,4.393050194E0,7.389000416E0,-3.616050243E0
3.761619146E0,4.263000011E0,7.480050564E0,-3.622950077E0
3.764062531E0,4.266000271E0,7.425000191E0,-3.682950258E0
3.766505990E0,4.036050320E0,7.437000275E0,-3.357000113E0
3.768949315E0,4.444950104E0,7.306950569E0,-3.384000063E0
3.771392774E0,4.255949974E0,7.458000183E0,-3.364050150E0
3.773836161E0,4.354050159E0,7.417050362E0,-3.862050295E0
3.776279546E0,4.261050224E0,7.554000378E0,-3.922050238E0
3.778722930E0,4.483950138E0,7.369950294E0,-4.246050358E0
3.781166315E0,4.471950054E0,7.582950592E0,-4.164000034E0
3.783609700E0,4.515000343E0,7.285950184E0,-4.396049976E0
3.786053084E0,4.548000336E0,7.585050583E0,-4.068000317E0
3.788496468E0,4.587000370E0,7.201950550E0,-4.212000370E0
3.790939852E0,4.668000221E0,7.609050274E0,-3.910050154E0
3.793383471E0,4.531949997E0,7.294950485E0,-4.135050297E0
3.795826857E0,4.539000034E0,7.681050301E0,-3.939000130E0
3.798270242E0,4.632000446E0,7.362000465E0,-4.107000351E0
3.800713627E0,4.876049995E0,7.635000229E0,-3.937050104E0
3.803157011E0,4.675050259E0,7.645050526E0,-4.024950027E0
3.805600401E0,4.608000278E0,7.647000313E0,-3.930000305E0
3.808043786E0,4.668000221E0,7.912950516E0,-3.685050249E0
3.810487170E0,4.693950176E0,7.579950333E0,-3.843000174E0
3.812930630E0,4.543950081E0,8.116950035E0,-3.622950077E0
3.815374016E0,4.575000286E0,7.603950500E0,-3.730950117E0
3.817817416E0,4.680000305E0,8.032950401E0,-3.505950212E0
3.820260801E0,4.603050232E0,7.602000237E0,-3.811950207E0
3.822704185E0,4.587000370E0,7.948950291E0,-3.691950083E0
3.825147570E0,4.359000206E0,7.663950443E0,-3.850050211E0
3.827590954E0,4.359000206E0,7.731000423E0,-3.616050243E0
3.830034357E0,4.321050167E0,7.675950527E0,-3.360000134E0
3.832477741E0,4.548000336E0,7.446000576E0,-3.499050140E0
3.834921125E0,4.330049992E0,7.663950443E0,-3.541950226E0
3.837364510E0,4.504950047E0,7.264050484E0,-3.865050077E0
3.839808125E0,4.290000439E0,7.651950359E0,-3.733050108E0
3.842251512E0,4.399950027E0,7.245000362E0,-3.907950163E0
3.844694897E0,4.315950394E0,7.627950191E0,-3.577950239E0
3.847138281E0,4.278000355E0,7.089000225E0,-3.654000282E0
3.849581666E0,4.335000038E0,7.408050537E0,-3.340950251E0
3.852025045E0,4.432950020E0,7.092000484E0,-3.522000074E0
3.854468505E0,4.471950054E0,7.183050156E0,-3.592050076E0
3.856911892E0,4.192049980E0,7.264050484E0,-3.649050236E0
3.859355276E0,4.357050419E0,7.200000286E0,-3.673050165E0
3.861798661E0,4.017000198E0,7.614000320E0,-3.364050150E0
3.864242045E0,4.041000366E0,7.188000202E0,-3.546000242E0
3.866685430E0,4.014000416E0,7.839000225E0,-3.124950171E0
3.869128815E0,4.024050236E0,7.270950317E0,-3.568050146E0
3.871572199E0,4.078950405E0,7.912950516E0,-3.453000069E0
3.874015583E0,4.002000332E0,7.480050564E0,-3.903000116E0
3.876459202E0,4.218000412E0,7.777050495E0,-3.865050077E0
3.878902358E0,3.684000254E0,7.575000286E0,-4.090050220E0
3.881345972E0,3.478050232E0,7.461000443E0,-3.748050213E0
3.883789358E0,3.508950233E0,7.258950233E0,-3.075000048E0
3.886232743E0,4.085999966E0,6.769050121E0,-3.087000132E0
3.888676141E0,3.976050138E0,6.961950302E0,-3.388050079E0
3.891119526E0,4.237050056E0,6.991050243E0,-3.903000116E0
3.893562911E0,4.519950390E0,6.856950283E0,-4.801050186E0
3.896006295E0,3.835050106E0,7.446000576E0,-4.687950134E0
3.898449755E0,3.801000118E0,7.282950401E0,-4.438950062E0
3.900893122E0,3.540000200E0,7.522950172E0,-3.664050102E0
3.903336507E0,3.792000294E0,7.291050434E0,-3.586950064E0
3.905779892E0,3.306000233E0,7.057950497E0,-3.682950258E0
3.908223276E0,4.110000134E0,6.804000378E0,-3.769050121E0
3.910666661E0,4.098000050E0,6.795000553E0,-3.721050262E0
3.913110065E0,4.093050003E0,7.117950439E0,-3.420000076E0
3.915553449E0,4.009950161E0,7.338000298E0,-3.324000120E0
3.917996833E0,3.624000072E0,7.972950459E0,-2.871000051E0
3.920440217E0,3.600000143E0,7.987050533E0,-3.367050171E0
3.922883601E0,3.619050264E0,8.377950668E0,-3.652050257E0
3.925326991E0,3.712950230E0,8.076000214E0,-4.576050282E0
3.927770606E0,3.543000221E0,8.394000053E0,-4.321950436E0
3.930213993E0,4.174950123E0,7.747950554E0,-4.393949986E0
3.932657377E0,3.552000284E0,8.128950119E0,-3.855000257E0
3.935100762E0,4.405050278E0,7.510950565E0,-4.195050240E0
3.937544133E0,3.873000145E0,7.860000610E0,-4.138050079E0
3.939987517E0,4.183950424E0,7.453050137E0,-4.684050083E0
3.942430977E0,3.694050074E0,7.948950291E0,-4.602000237E0
3.944874363E0,3.943050146E0,7.432050228E0,-4.565999985E0
3.947317748E0,3.568950176E0,7.912950516E0,-4.048950195E0
3.949761137E0,3.958950281E0,7.336050510E0,-4.059000015E0
3.952204521E0,3.876000166E0,7.690050602E0,-3.807000160E0
3.954647906E0,4.146000385E0,7.245000362E0,-4.114050388E0
3.957091290E0,3.655050278E0,7.707000256E0,-4.272000313E0
3.959534904E0,4.294950008E0,7.111050129E0,-4.666950226E0
3.961978060E0,3.649950266E0,7.579950333E0,-4.147050381E0
3.964421673E0,3.946950197E0,7.123050213E0,-4.078050137E0
3.966864829E0,3.471000195E0,7.384050369E0,-3.442950249E0
3.969308442E0,3.943050146E0,6.814050198E0,-3.646950245E0
3.971751844E0,3.733950138E0,7.165950298E0,-3.252000093E0
3.974195229E0,3.841950178E0,6.723000526E0,-3.733050108E0
3.976638613E0,3.769950151E0,7.069950104E0,-3.775950193E0
3.979081998E0,3.877950191E0,6.721050262E0,-4.006050110E0
3.981525382E0,3.516000271E0,7.330950260E0,-3.783000231E0
3.983968762E0,3.799050093E0,6.867000103E0,-3.939000130E0
3.986412222E0,3.586050272E0,7.432050228E0,-3.730950117E0
3.988855608E0,3.343950272E0,7.129950523E0,-4.056000233E0
3.991298993E0,3.400950193E0,7.422000408E0,-4.096950054E0
3.993742377E0,3.330000162E0,7.362000465E0,-4.204950333E0
3.996185746E0,3.775050163E0,7.305000305E0,-4.092000008E0
3.998629131E0,3.330000162E0,7.717050552E0,-3.934050083E0
4.001072515E0,3.793950081E0,7.386000156E0,-4.144950390E0
4.003515899E0,3.472950220E0,7.614000320E0,-4.143000126E0
4.005959283E0,3.780000210E0,7.558950424E0,-4.614000320E0
4.008402898E0,3.751050234E0,7.960950375E0,-4.425000191E0
4.010846054E0,3.604950190E0,7.590000153E0,-4.486950397E0
4.013289667E0,3.967050076E0,7.992000580E0,-4.072950363E0
4.015733054E0,3.928050280E0,7.555950165E0,-4.075950146E0
4.018176438E0,4.066950321E0,7.984950542E0,-4.087950230E0
4.020619804E0,4.138950348E0,7.930050373E0,-4.248000145E0
4.023063189E0,3.876000166E0,8.167050362E0,-4.156949997E0
4.025506573E0,3.844050169E0,8.253000259E0,-4.297950268E0
4.027949958E0,3.837000132E0,8.248050690E0,-3.931950092E0
4.030393343E0,3.628950119E0,8.683950424E0,-3.805050135E0
4.032836816E0,3.763050079E0,8.353950500E0,-3.810000181E0
4.035280203E0,3.729000092E0,8.800950050E0,-3.493950129E0
4.037723587E0,3.571050167E0,8.346000671E0,-3.826950073E0
4.040166972E0,3.720000267E0,8.718000412E0,-3.499050140E0
4.042610357E0,3.445050240E0,8.479949951E0,-3.975000143E0
4.045053741E0,3.708000183E0,8.703000069E0,-3.585000277E0
4.047497355E0,3.322050095E0,8.554950714E0,-3.493950129E0
4.049940741E0,3.624000072E0,8.296050072E0,-3.430950165E0
4.052384126E0,3.544950247E0,8.571000099E0,-3.297000170E0
4.054827510E0,3.448950052E0,8.221950531E0,-3.694950104E0
4.057270900E0,3.829950094E0,8.593050003E0,-3.403050184E0
4.059714285E0,3.712950230E0,7.944000244E0,-3.807000160E0
4.062157669E0,3.684000254E0,8.478000641E0,-3.606000185E0
4.064601054E0,3.724950075E0,8.035050392E0,-3.730950117E0
4.067044439E0,3.745950222E0,8.289000511E0,-3.714000225E0
4.069487833E0,4.018949986E0,8.140049934E0,-3.817050219E0
4.071931217E0,3.720000267E0,8.097000122E0,-3.799950123E0
4.074374677E0,3.916050196E0,8.215050697E0,-3.714000225E0
4.076818064E0,4.120050430E0,7.843950272E0,-3.823950291E0
4.079261449E0,3.955050230E0,8.482950211E0,-3.721050262E0
4.081704818E0,4.651050091E0,8.071050644E0,-3.814950228E0
4.084148203E0,4.563000202E0,8.662050247E0,-4.084949970E0
4.086591587E0,4.159950256E0,8.457000732E0,-4.906050205E0
4.089034972E0,3.768000126E0,8.503950119E0,-4.794000149E0
4.091478585E0,3.511950254E0,8.200050354E0,-4.132950306E0
4.093921972E0,3.934950113E0,8.131050110E0,-2.947950125E0
4.096365357E0,4.429050446E0,7.980000496E0,-2.668050051E0
4.098808741E0,4.420950413E0,8.208000183E0,-3.043950081E0
4.101252126E0,4.134000301E0,8.197950363E0,-4.389000416E0
4.103695492E0,3.258000135E0,8.967000008E0,-4.834950447E0
4.106138876E0,3.532950163E0,8.848950386E0,-4.578000069E0
4.108582261E0,2.944050074E0,9.535950661E0,-3.297000170E0
4.111025645E0,3.049950123E0,9.085950851E0,-2.749050140E0
4.113469029E0,2.853000164E0,9.181950569E0,-2.383050203E0
4.115912417E0,3.406050205E0,8.706000328E0,-3.472050190E0
4.118355801E0,3.673950195E0,8.883000374E0,-4.327050209E0
4.120799263E0,3.864000082E0,8.919000626E0,-4.897050381E0
4.123242649E0,2.980050087E0,9.381000519E0,-4.143000126E0
4.125686034E0,3.576000214E0,9.421050072E0,-3.337950230E0
4.128129419E0,3.406050205E0,9.714000702E0,-3.175050259E0
4.130572803E0,3.715050220E0,9.151050568E0,-3.862050295E0
4.133016188E0,3.514050245E0,9.121950150E0,-4.381950378E0
4.135459801E0,4.450050354E0,8.610000610E0,-4.930050373E0
4.137903188E0,4.219950199E0,8.433000565E0,-4.830000401E0
4.140346569E0,4.632000446E0,8.204999924E0,-4.582950115E0
4.142789953E0,4.153050423E0,8.278950691E0,-4.240950108E0
4.145233338E0,4.218000412E0,8.365950584E0,-4.243050098E0
4.147676722E0,3.873000145E0,8.215050697E0,-4.324950218E0
4.150120107E0,3.763050079E0,8.188050270E0,-4.473000050E0
4.152563477E0,3.339000225E0,8.137949944E0,-4.357950211E0
4.155006861E0,3.595050097E0,7.606950283E0,-4.380000114E0
4.157450245E0,3.673950195E0,7.501050472E0,-4.012950420E0
4.159893629E0,3.933000088E0,7.093950272E0,-4.078050137E0
4.162337013E0,3.648000240E0,7.393050194E0,-3.819000244E0
4.164780475E0,3.583050251E0,7.089000225E0,-3.907950163E0
4.167223861E0,3.612000227E0,7.386000156E0,-3.585000277E0
4.169667246E0,3.780000210E0,7.080000401E0,-3.727950096E0
4.172110631E0,3.457050085E0,7.350000381E0,-3.598950148E0
4.174554015E0,3.679050207E0,6.964950562E0,-3.874050140E0
4.176997634E0,3.931050301E0,7.342950344E0,-3.550950050E0
4.179441020E0,3.781950235E0,6.994050503E0,-3.658950090E0
4.181884405E0,3.919050217E0,7.116000175E0,-3.525000095E0
4.184327789E0,3.777000189E0,7.189950466E0,-3.664050102E0
4.186771174E0,4.077000141E0,7.231050491E0,-3.745050192E0
4.189214570E0,3.484950066E0,7.507950306E0,-3.714000225E0
4.191657954E0,4.048050404E0,7.281000137E0,-3.937050104E0
4.194101339E0,3.619050264E0,7.870050430E0,-3.733050108E0
4.196544724E0,3.792000294E0,7.438950539E0,-3.970050097E0
4.198988183E0,3.829950094E0,7.935000420E0,-3.616050243E0
4.201431493E0,4.074000359E0,7.449000359E0,-3.907950163E0
4.203874952E0,4.183950424E0,7.863000393E0,-3.682950258E0
4.206318339E0,4.156050205E0,7.597050190E0,-3.964950085E0
4.208761724E0,4.311000347E0,7.900950432E0,-3.733050108E0
4.211205112E0,4.282950401E0,7.678050518E0,-4.039950371E0
4.213648497E0,4.066950321E0,8.011050224E0,-3.976950169E0
4.216091881E0,3.946950197E0,8.140049934E0,-3.855000257E0
4.218535265E0,4.218000412E0,7.662000179E0,-3.790950298E0
4.220978879E0,4.146000385E0,8.197950363E0,-3.420000076E0
4.223422252E0,4.309050083E0,7.537050247E0,-3.712050200E0
4.225865637E0,4.134000301E0,8.061000824E0,-3.553950071E0
4.228309021E0,4.249050140E0,7.591950417E0,-3.841050148E0
4.230752406E0,3.985950232E0,7.984950542E0,-3.538950205E0
4.233195791E0,4.041000366E0,7.705050468E0,-3.496050119E0
4.235639161E0,4.146000385E0,7.578000546E0,-3.325950146E0
4.238082546E0,3.817950249E0,7.840950489E0,-3.154050112E0
4.240525930E0,4.279950142E0,7.267050266E0,-3.457950115E0
4.242969390E0,3.828000069E0,7.792950153E0,-3.340950251E0
4.245412777E0,4.249050140E0,7.200000286E0,-3.592050076E0
4.247856161E0,3.820050240E0,7.855950356E0,-3.300000191E0
4.250299546E0,3.753000259E0,7.420050144E0,-3.553950071E0
4.252742930E0,3.817950249E0,7.923000336E0,-3.372000217E0
4.255186315E0,3.640950203E0,7.603950500E0,-3.766950130E0
4.257629700E0,3.772950172E0,7.695000172E0,-3.669000149E0
4.260073088E0,3.721950293E0,7.756950378E0,-3.574950218E0
4.262516472E0,3.952050209E0,7.458000183E0,-3.652050257E0
4.264960086E0,3.744000196E0,7.858050346E0,-3.508050203E0
4.267403473E0,3.988050222E0,7.245000362E0,-3.970050097E0
4.269846858E0,3.852000237E0,7.864950180E0,-3.762000084E0
4.272290247E0,3.883050203E0,7.333950520E0,-4.044000149E0
4.274733632E0,4.246950150E0,7.675950527E0,-3.903000116E0
4.277177016E0,4.374000072E0,7.657050133E0,-3.987000227E0
4.279620401E0,4.759050369E0,7.755000591E0,-4.308000088E0
4.282063861E0,4.213050365E0,7.923000336E0,-4.771950245E0
4.284507170E0,3.864000082E0,7.729050159E0,-4.909050465E0
4.286950630E0,3.250950098E0,7.639950275E0,-3.958050251E0
4.289393940E0,4.101000309E0,7.353000164E0,-2.871000051E0
4.291837399E0,4.512000084E0,7.414950371E0,-2.545950174E0
4.294280786E0,4.656000137E0,7.594950199E0,-3.367050171E0
4.296724170E0,3.921000242E0,7.777050495E0,-4.735949993E0
4.299167555E0,3.672000170E0,8.200050354E0,-4.890000343E0
4.301610940E0,3.592950106E0,8.277000427E0,-4.369950294E0
4.304054324E0,2.962950230E0,8.677050591E0,-2.950050116E0
4.306497709E0,2.767050028E0,8.272050858E0,-2.329950094E0
4.308941083E0,3.001950026E0,8.157000542E0,-2.388000011E0
4.311384697E0,3.781950235E0,7.530000210E0,-3.466950178E0
4.313828083E0,3.751050234E0,7.975050449E0,-4.024950027E0
4.316271468E0,3.883050203E0,8.026050568E0,-4.258049965E0
4.318714853E0,3.355950117E0,8.847000122E0,-3.570000172E0
4.321158252E0,3.447000265E0,8.830050468E0,-3.343050241E0
4.323601637E0,3.433050156E0,9.124950409E0,-3.241950035E0
4.326045096E0,4.026000023E0,8.265000343E0,-4.132950306E0
4.328488483E0,3.696000099E0,8.392050743E0,-4.063950062E0
4.330931868E0,4.635000229E0,7.542000294E0,-4.138050079E0
4.333375256E0,4.611000061E0,7.827000141E0,-3.568050146E0
4.335818641E0,4.540950298E0,7.357950211E0,-3.943950176E0
4.338262026E0,3.892050266E0,7.948950291E0,-3.973050117E0
4.340705410E0,4.170000076E0,7.756950378E0,-4.660050392E0
4.343148794E0,3.696000099E0,8.217000008E0,-4.477950096E0
4.345592178E0,3.868050098E0,7.695000172E0,-4.438950062E0
4.348035562E0,3.712950230E0,7.741050243E0,-4.092000008E0
4.350478947E0,3.928050280E0,7.231050491E0,-4.044000149E0
4.352922562E0,3.880050182E0,7.312050343E0,-4.174050331E0
4.355365949E0,3.526050091E0,7.008000374E0,-4.449000359E0
4.357809324E0,3.052050114E0,7.207050323E0,-3.931950092E0
4.360252709E0,3.162000179E0,6.847950459E0,-3.673050165E0
4.362696094E0,3.331950188E0,7.165950298E0,-3.007950068E0
4.365139478E0,3.330000162E0,6.855000496E0,-3.517950058E0
4.367582863E0,3.448950052E0,7.288050175E0,-3.556050062E0
4.370026317E0,3.825000286E0,7.129950523E0,-4.032000065E0
4.372469627E0,3.793950081E0,7.341000557E0,-4.051949978E0
4.374913087E0,3.820050240E0,7.389000416E0,-3.994050264E0
4.377356396E0,4.426050186E0,7.372050285E0,-3.907950163E0
4.379799856E0,3.888000250E0,7.642050266E0,-3.994050264E0
4.382243231E0,4.255949974E0,7.630050182E0,-4.126049995E0
4.384686616E0,4.060050011E0,7.779000282E0,-4.240950108E0
4.387130001E0,4.021950245E0,7.654050350E0,-4.267050266E0
4.389573385E0,3.861000299E0,8.028000832E0,-3.664050102E0
4.392016723E0,3.883050203E0,7.759950161E0,-3.645000219E0
4.394460108E0,3.799050093E0,8.334000587E0,-3.436050177E0
4.396903492E0,3.706050158E0,8.020950317E0,-3.915000200E0
4.399347106E0,3.531000137E0,8.398950577E0,-3.847950220E0
4.401790492E0,3.595050097E0,8.173950195E0,-4.297950268E0
4.404233887E0,3.436950207E0,8.548050880E0,-4.092000008E0
4.406677271E0,3.040050030E0,8.530950546E0,-4.128000259E0
4.409120656E0,3.214950085E0,8.346000671E0,-4.111050129E0
4.411564116E0,2.974950075E0,8.605050087E0,-4.048950195E0
4.414007502E0,3.076050043E0,8.026050568E0,-4.305000305E0
4.416450887E0,3.010950089E0,8.350950241E0,-4.032000065E0
4.418894271E0,3.442050219E0,7.834050179E0,-4.114050388E0
4.421337656E0,3.768000126E0,7.987050533E0,-4.156949997E0
4.423781041E0,4.431000233E0,7.831950188E0,-4.618950367E0
4.426224425E0,3.919050217E0,7.828950405E0,-5.182050228E0
4.428667809E0,3.709950209E0,7.675950527E0,-5.505000114E0
4.431111193E0,3.849000216E0,7.483950138E0,-5.164950371E0
4.433554577E0,3.315000057E0,7.401000500E0,-4.269000053E0
4.435997962E0,3.859050274E0,7.039050102E0,-3.223050117E0
4.438441347E0,3.970950127E0,7.159050465E0,-2.874000072E0
4.440884957E0,4.002000332E0,6.964950562E0,-3.736050129E0
4.443328343E0,4.050000191E0,7.800000191E0,-4.711950302E0
4.445771728E0,3.840000153E0,8.004000664E0,-5.593950272E0
4.448215113E0,3.295950174E0,8.968950272E0,-5.419050217E0
4.450658497E0,2.812050104E0,9.220050812E0,-4.618950367E0
4.453101863E0,2.547000170E0,9.247050285E0,-3.841050148E0
4.455545248E0,2.614050150E0,9.028950691E0,-3.738000154E0
4.457988707E0,3.210000038E0,8.482950211E0,-4.288949966E0
4.460432094E0,3.259950161E0,8.289000511E0,-4.549950123E0
4.462875478E0,3.555000067E0,7.750050545E0,-4.341000080E0
4.465318872E0,3.873000145E0,8.269950867E0,-3.481950283E0
4.467762257E0,3.636000156E0,8.128950119E0,-3.369000196E0
4.470205641E0,3.877950191E0,8.536050797E0,-3.549000263E0
4.472649026E0,4.026000023E0,8.218950272E0,-4.159049988E0
4.475092410E0,4.117050171E0,8.124000549E0,-4.279050350E0
4.477535809E0,4.219950199E0,8.061000824E0,-4.687950134E0
4.479979423E0,4.146000385E0,7.899000168E0,-4.885050297E0
4.482422579E0,3.679050207E0,8.035050392E0,-4.969050407E0
4.484866193E0,3.361050129E0,7.683000565E0,-4.750950336E0
4.487309579E0,3.117000103E0,7.867950439E0,-4.369950294E0
4.489752978E0,2.760000229E0,7.645050526E0,-3.918000221E0
4.492196363E0,2.829000235E0,7.647000313E0,-3.477000237E0
4.494639747E0,2.680950165E0,7.623000145E0,-3.790950298E0
4.497083207E0,2.604000092E0,7.888950348E0,-4.782000065E0
4.499526593E0,2.692950010E0,8.061000824E0,-5.281950474E0
4.501969978E0,3.042000055E0,7.647000313E0,-5.335050106E0
4.504413363E0,3.166950226E0,7.915050507E0,-4.918050289E0
4.506856747E0,3.198000193E0,7.567950249E0,-4.518000126E0
4.509300132E0,3.636000156E0,7.681050301E0,-4.147050381E0
4.511743502E0,3.612000227E0,7.432050228E0,-4.300950050E0
4.514186886E0,3.708000183E0,7.480050564E0,-4.447050095E0
4.516630270E0,3.540000200E0,7.729050159E0,-4.308000088E0
4.519073654E0,4.000050068E0,7.348050117E0,-4.249950409E0
4.521517039E0,3.616950274E0,8.044950485E0,-4.068000317E0
4.523960428E0,3.715050220E0,7.618950367E0,-4.305000305E0
4.526404043E0,3.772950172E0,7.969950199E0,-4.128000259E0
4.528847430E0,3.435000181E0,7.822050571E0,-3.982050180E0
4.531290814E0,3.562050104E0,7.870050430E0,-4.006050110E0
4.533734199E0,2.961000204E0,8.109000206E0,-4.015950203E0
4.536177583E0,3.025950193E0,8.088000298E0,-4.336950302E0
4.538620968E0,2.524950027E0,8.358000755E0,-4.471050262E0
4.541064428E0,2.523000002E0,8.131050110E0,-4.565999985E0
4.543507814E0,2.797950029E0,8.452050209E0,-4.630950451E0
4.545951199E0,2.923050165E0,8.478000641E0,-4.951950073E0
4.548394583E0,2.947050095E0,8.310000420E0,-5.605950356E0
4.550837968E0,2.455950022E0,8.290950775E0,-5.794950485E0
4.553281353E0,2.428950071E0,7.843950272E0,-5.301000118E0
4.555724737E0,1.869000077E0,7.846050262E0,-4.231050014E0
4.558168351E0,1.978950143E0,7.513050556E0,-3.982050180E0
4.560611507E0,2.554050207E0,7.614000320E0,-3.783000231E0
4.563055120E0,2.872050047E0,7.267050266E0,-4.072950363E0
4.565498276E0,3.355950117E0,7.558950424E0,-4.405950069E0
4.567941889E0,3.169050217E0,7.978050232E0,-5.230050087E0
4.570385276E0,3.102000237E0,8.682000160E0,-5.673000336E0
4.572828655E0,2.619000196E0,8.992950439E0,-5.704050064E0
4.575272040E0,2.092050076E0,9.016950607E0,-5.071950436E0
4.577715425E0,2.326050043E0,9.160050392E0,-4.537950039E0
4.580158809E0,1.909950137E0,8.410950661E0,-4.638000011E0
4.582602269E0,2.379000187E0,8.193000793E0,-4.698000431E0
4.585045693E0,3.961950302E0,8.181000710E0,-2.730000019E0
4.587489078E0,3.139950037E0,6.706050396E0,-4.819950104E0
4.589932463E0,3.057000160E0,8.694000244E0,-3.999000072E0
4.592375847E0,3.181050062E0,7.906050205E0,-6.586950302E0
4.594819232E0,2.887050152E0,8.919000626E0,-4.171050072E0
4.597262603E0,3.804000139E0,7.009950161E0,-6.046050072E0
4.599705987E0,3.844050169E0,8.641050339E0,-3.070050240E0
4.602149371E0,2.616000175E0,7.123050213E0,-6.136950493E0
4.604592755E0,2.812050104E0,7.585050583E0,-4.735949993E0
4.607036139E0,3.421050072E0,7.209000111E0,-5.509950161E0
4.609479753E0,3.129000187E0,7.743000507E0,-4.063950062E0
4.611923140E0,2.353049994E0,7.426950455E0,-2.518950224E0
4.614366525E0,2.190000057E0,8.193000793E0,-5.107050419E0
4.616809909E0,2.467950106E0,8.365950584E0,-6.469950199E0
4.619253294E0,2.158950090E0,8.440050125E0,-7.564050198E0
4.621696694E0,2.085000038E0,8.458950043E0,-6.451050282E0
4.624140078E0,2.353049994E0,7.827000141E0,-4.389000416E0
4.626583538E0,4.180050373E0,6.886050224E0,-2.956950188E0
4.629026924E0,3.427950144E0,7.108950138E0,-3.256950140E0
4.631470314E0,3.591000080E0,6.724950314E0,-3.325950146E0
4.633913699E0,4.551000118E0,6.706050396E0,-4.353000164E0
4.636357083E0,4.084050179E0,6.709050179E0,-3.802950144E0
4.638800468E0,3.957000256E0,7.326000214E0,-2.446950197E0
4.641244081E0,4.219950199E0,7.270950317E0,-1.650000095E0
4.643687241E0,4.900050163E0,6.952950478E0,-2.209950209E0
4.646130854E0,4.752000332E0,7.930050373E0,-3.898050070E0
4.648574241E0,3.640950203E0,8.097000122E0,-5.337000370E0
4.651017626E0,3.961950302E0,7.522950172E0,-5.035950184E0
4.653461010E0,3.258000135E0,8.131050110E0,-4.011000156E0
4.655904381E0,4.717950344E0,7.753050327E0,-2.761050224E0
4.658347766E0,4.186950207E0,8.386950493E0,-3.814950228E0
4.660791150E0,2.721000195E0,8.155050278E0,-6.004950523E0
4.663234535E0,1.998000145E0,7.864950180E0,-6.388050079E0
4.665677919E0,2.451000214E0,7.599000454E0,-4.984950066E0
4.668121365E0,2.970000029E0,7.108950138E0,-2.524050236E0
4.670564752E0,3.388950109E0,6.787950516E0,-9.319500327E-1
4.673008136E0,4.026000023E0,6.591000080E0,-2.281949997E0
4.675451521E0,4.192049980E0,7.048950195E0,-4.590000153E0
4.677894905E0,4.390050411E0,7.314000130E0,-6.714000225E0
4.680338270E0,2.796000242E0,7.812000275E0,-6.352950096E0
4.682781655E0,2.632950068E0,8.200050354E0,-3.919950247E0
4.685225039E0,2.619000196E0,9.189000130E0,-2.476050138E0
4.687668653E0,2.343000174E0,8.641050339E0,-2.799000025E0
4.690112039E0,3.507000208E0,7.990050316E0,-3.028950214E0
4.692555424E0,6.945000172E0,7.450950146E0,-4.827000141E0
4.694998809E0,1.500000119E0,6.199050426E0,-6.276000500E0
4.697442193E0,2.580000162E0,7.807950497E0,-1.165950060E0
4.699885578E0,2.580000162E0,7.128000259E0,-1.810950041E0
4.702328962E0,5.302950382E0,8.131050110E0,-3.910500109E-1
4.704772352E0,4.125000000E0,6.862050533E0,-2.763000250E0
4.707215737E0,7.321050167E0,7.671000481E0,-5.578950405E0
4.709659196E0,2.467950106E0,7.348050117E0,-7.234050274E0
4.712102583E0,2.530050039E0,9.433050156E0,-4.681050301E0
4.714545967E0,3.028050184E0,8.755949974E0,-3.472050190E0
4.716989357E0,2.341050148E0,9.850050926E0,-1.975950122E0
4.719432742E0,2.263950109E0,9.076950073E0,-4.810950279E0
4.721876126E0,2.226000071E0,9.499950409E0,-5.740050316E0
4.724319740E0,3.334050179E0,8.065950394E0,-7.630950451E0
4.726762896E0,2.422049999E0,8.808000565E0,-7.083000183E0
4.729206278E0,1.608000040E0,8.418000221E0,-5.287050247E0
4.731649894E0,2.017950058E0,8.005949974E0,-2.584050179E0
4.734093280E0,2.640000105E0,7.231050491E0,-3.115050077E0
4.736536665E0,2.985000134E0,7.132050514E0,-2.790000200E0
4.738980049E0,3.550050259E0,6.567000389E0,-3.850050211E0
4.741423434E0,4.303950310E0,7.099050522E0,-3.408000231E0
4.743866819E0,4.311000347E0,7.360050201E0,-2.799000025E0
4.746310203E0,3.793950081E0,7.915050507E0,-2.491050005E0
4.748753588E0,3.751050234E0,8.136000633E0,-2.287050009E0
4.751197047E0,4.041000366E0,8.076000214E0,-2.955000162E0
4.753640434E0,4.777950287E0,8.782050133E0,-4.200000286E0
4.756083819E0,4.596000195E0,8.788949966E0,-5.044950008E0
4.758527203E0,3.643050194E0,9.079050064E0,-4.594950199E0
4.760970588E0,3.490050077E0,8.710050583E0,-3.870000124E0
4.763413973E0,3.442050219E0,8.490000725E0,-3.625050068E0
4.765857357E0,2.362050056E0,8.919000626E0,-3.393000126E0
4.768300971E0,3.160050154E0,8.394000053E0,-4.118999958E0
4.770744357E0,3.535950184E0,8.358000755E0,-4.969050407E0
4.773187742E0,3.346050262E0,7.947000504E0,-4.798950195E0
4.775631126E0,3.708000183E0,7.918050289E0,-4.417950153E0
4.778074506E0,3.817950249E0,8.041950226E0,-4.654950142E0
4.780517891E0,3.703050137E0,8.643000603E0,-4.813050270E0
4.782961275E0,2.982000113E0,8.667000771E0,-5.320950031E0
4.785404660E0,2.755050182E0,8.464050293E0,-5.116950035E0
4.787848045E0,2.463000059E0,8.029950142E0,-4.195050240E0
4.790291429E0,3.531000137E0,6.934050560E0,-3.151050091E0
4.792734889E0,4.222949982E0,6.682050228E0,-2.184000015E0
4.795178275E0,5.070000172E0,6.421050072E0,-2.481000185E0
4.797621660E0,4.869000435E0,6.979050159E0,-2.956950188E0
4.800065045E0,4.656000137E0,7.173000336E0,-3.718950272E0
4.802508429E0,4.354050159E0,8.053950310E0,-3.490950108E0
4.804951814E0,4.279950142E0,7.570950508E0,-3.412050247E0
4.807395198E0,4.303950310E0,8.053950310E0,-2.929050207E0
4.809838582E0,4.546050072E0,7.444050312E0,-3.384000063E0
4.812282182E0,4.675050259E0,7.468050480E0,-3.376050234E0
4.814725569E0,4.156050205E0,7.015050411E0,-4.891950130E0
4.817168954E0,4.096050262E0,7.980000496E0,-4.960950375E0
4.819612338E0,4.297049999E0,7.666050434E0,-5.586000443E0
4.822055723E0,3.562050104E0,8.077950478E0,-5.392050266E0
4.824499107E0,2.674050093E0,8.092950821E0,-5.329950333E0
4.826942491E0,2.152050018E0,8.176050186E0,-4.738950253E0
4.829385876E0,2.379000187E0,7.456050396E0,-4.674000263E0
4.831829260E0,3.094950199E0,7.456050396E0,-4.168950081E0
4.834272720E0,3.375000238E0,7.161000252E0,-4.063950062E0
4.836716103E0,2.938950062E0,7.105950356E0,-2.911950111E0
4.839159487E0,4.057950020E0,6.867000103E0,-2.680050135E0
4.841602872E0,3.748950243E0,7.366950512E0,-2.574000120E0
4.844046256E0,4.242000103E0,7.084950447E0,-3.505950212E0
4.846489641E0,4.060050011E0,7.657050133E0,-3.802950144E0
4.848933254E0,4.227000237E0,7.506000519E0,-4.315050125E0
4.851376641E0,4.194000244E0,7.558950424E0,-3.513000250E0
4.853820026E0,5.226000309E0,7.362000465E0,-3.240000248E0
4.856263410E0,4.531949997E0,7.762050152E0,-3.478950262E0
4.858706795E0,3.949950218E0,7.591950417E0,-4.513950348E0
4.861150180E0,3.082950115E0,7.396050453E0,-5.206050396E0
4.863593564E0,3.090000153E0,7.647000313E0,-4.633050442E0
4.866036949E0,3.303000212E0,7.273950577E0,-4.179000378E0
4.868480333E0,2.962950230E0,8.197950363E0,-3.214050055E0
4.870923717E0,3.082950115E0,8.112000465E0,-3.490950108E0
4.873367105E0,2.644950151E0,8.743950844E0,-4.096950054E0
4.875810566E0,3.126000166E0,8.839950562E0,-5.083950043E0
4.878253953E0,2.772000074E0,9.220050812E0,-5.476050377E0
4.880697337E0,2.476950169E0,9.333000183E0,-5.790000439E0
4.883140722E0,1.599000096E0,9.211050034E0,-5.260950089E0
4.885584107E0,2.046000004E0,8.586000443E0,-4.015950203E0
4.888027491E0,3.301050186E0,7.504050255E0,-3.220950127E0
4.890471105E0,3.399000168E0,7.378950119E0,-2.742000103E0
4.892914491E0,4.122000217E0,7.057950497E0,-3.288000107E0
4.895357876E0,4.527000427E0,7.084950447E0,-4.225950241E0
4.897801271E0,4.141050339E0,7.128000259E0,-4.831950188E0
4.900244655E0,4.018949986E0,7.434000492E0,-4.192950249E0
4.902688040E0,4.085999966E0,7.245000362E0,-3.408000231E0
4.905131424E0,4.483950138E0,7.273950577E0,-2.857050180E0
4.907574809E0,4.498050213E0,7.117950439E0,-3.499050140E0
4.910018180E0,4.420950413E0,7.270950317E0,-4.525950432E0
4.912461564E0,4.333050251E0,7.683000565E0,-5.773050308E0
4.914905024E0,3.283950090E0,8.614950180E0,-5.637000084E0
4.917348410E0,3.435000181E0,8.782050133E0,-5.730000496E0
4.919791795E0,2.382000208E0,9.306000710E0,-5.323050022E0
4.922235184E0,1.777950048E0,9.084000587E0,-5.203050137E0
4.924678568E0,1.768950105E0,8.410950661E0,-5.028000355E0
4.927121953E0,2.164050102E0,7.762050152E0,-4.207050323E0
4.929565338E0,2.961000204E0,6.960000515E0,-4.012950420E0
4.932008966E0,2.749950171E0,7.171050549E0,-3.477000237E0
4.934452353E0,2.899050236E0,7.357950211E0,-2.911950111E0
4.936895737E0,3.400950193E0,7.300050259E0,-2.826000214E0
4.939339122E0,3.283950090E0,7.750050545E0,-2.827950239E0
4.941782506E0,3.672000170E0,7.810050488E0,-3.235050201E0
4.944225891E0,4.657950401E0,7.768950462E0,-3.874050140E0
4.946669276E0,4.927050114E0,7.642050266E0,-4.750950336E0
4.949112660E0,4.468950272E0,7.389000416E0,-4.942050457E0
4.951556044E0,3.631050110E0,7.420050144E0,-4.420050144E0
4.953999428E0,3.070950031E0,7.518000126E0,-3.180000067E0
4.956442812E0,3.780000210E0,7.398000240E0,-2.395050049E0
4.958886274E0,3.615000248E0,7.803000450E0,-2.955000162E0
4.961329660E0,3.196050167E0,8.080950737E0,-4.096950054E0
4.963773045E0,3.700950146E0,8.236050606E0,-4.779000282E0
4.966216430E0,3.448950052E0,8.461050034E0,-5.479050159E0
4.968659828E0,2.713950157E0,8.884950638E0,-5.500050068E0
4.971103213E0,2.604000092E0,9.139050484E0,-5.086050034E0
4.973546826E0,1.965000153E0,9.084000587E0,-4.423050404E0
4.975989982E0,2.182950020E0,8.445000648E0,-3.763950109E0
4.978433595E0,2.664000034E0,7.936950207E0,-3.700050116E0
4.980876982E0,3.289050102E0,7.360050201E0,-3.727950096E0
4.983320367E0,3.919050217E0,7.270950317E0,-3.739950180E0
4.985763751E0,4.041000366E0,7.326000214E0,-3.994050264E0
4.988207136E0,3.531000137E0,7.651950359E0,-3.930000305E0
4.990650521E0,3.696000099E0,7.638000488E0,-3.549000263E0
4.993093905E0,3.976050138E0,7.609050274E0,-3.280950069E0
4.995537290E0,3.876000166E0,7.462950230E0,-3.124950171E0
4.997980749E0,4.017000198E0,7.279050350E0,-3.103050232E0
5.000424136E0,4.467000008E0,7.048950195E0,-3.460050106E0
5.002867521E0,4.876049995E0,6.991050243E0,-4.059000015E0
5.005310924E0,4.302000046E0,7.602000237E0,-4.858050346E0
5.007754309E0,3.712950230E0,8.208000183E0,-5.493000031E0
5.010197693E0,3.295950174E0,8.739000320E0,-5.883000374E0
5.012641307E0,2.608950138E0,9.036000252E0,-5.806950092E0
5.015084693E0,2.092050076E0,8.855999947E0,-5.299050331E0
5.017528073E0,2.061000109E0,8.373000145E0,-4.791000366E0
5.019971458E0,2.346000195E0,8.026050568E0,-4.453950405E0
5.022414842E0,2.580000162E0,7.386000156E0,-4.489950180E0
5.024858227E0,2.880000114E0,7.341000557E0,-4.116000175E0
5.027301612E0,2.962950230E0,7.480050564E0,-3.865050077E0
5.029744996E0,2.712000132E0,7.771950245E0,-3.646950245E0
5.032188380E0,3.054000139E0,7.894050598E0,-3.469950199E0
5.034631764E0,3.330000162E0,8.044950485E0,-3.517950058E0
5.037075148E0,3.748950243E0,8.181000710E0,-3.766950130E0
5.039518610E0,4.690050125E0,7.786050320E0,-4.597949982E0
5.041962001E0,4.603050232E0,7.831950188E0,-5.136000156E0
5.044405386E0,3.909000158E0,7.602000237E0,-5.389950275E0
5.046848770E0,3.385050058E0,7.735950470E0,-4.846950054E0
5.049292155E0,3.391950130E0,7.654050350E0,-4.231050014E0
5.051735549E0,3.208050251E0,7.831950188E0,-3.700050116E0
5.054178933E0,2.985000134E0,8.266950607E0,-3.835950136E0
5.056622547E0,2.785950184E0,8.526000023E0,-4.309950352E0
5.059065933E0,2.551050186E0,8.598000526E0,-5.320950031E0
5.061509318E0,2.599050045E0,8.863950729E0,-5.716050148E0
5.063952703E0,2.274000168E0,9.297000885E0,-5.701050282E0
5.066396087E0,1.768950105E0,9.357000351E0,-4.951950073E0
5.068839472E0,1.158000112E0,9.139050484E0,-3.811950207E0
5.071282856E0,1.326000094E0,8.848950386E0,-2.983950138E0
5.073726241E0,2.226000071E0,8.454000473E0,-3.139050245E0
5.076169626E0,2.779050112E0,8.109000206E0,-4.167000294E0
5.078613010E0,2.554050207E0,7.848000526E0,-4.540050030E0
5.081056470E0,2.604000092E0,7.894050598E0,-3.910050154E0
5.083499856E0,2.863050222E0,7.549050331E0,-3.022050142E0
5.085943241E0,2.817000151E0,7.621050358E0,-2.152950048E0
5.088386612E0,3.379950047E0,7.177950382E0,-2.134050131E0
5.090829996E0,4.194000244E0,7.249950409E0,-2.620050192E0
5.093273381E0,4.777950287E0,7.231050491E0,-4.216950417E0
5.095716994E0,4.648950100E0,7.663950443E0,-5.364000320E0
